File: XRD/Homogenization/10_W0.40Ta0.40Cr0.10Ti0.10_HIP1800C 8h_2.xye
1.544427
20.0707	41.1111	2.1373
20.1555	41.2222	2.1402
20.2403	38.4444	2.0668
20.3251	40.2222	2.1140
20.4099	38.0000	2.0548
20.4946	42.1111	2.1631
20.5794	42.8889	2.1830
20.6642	37.2222	2.0337
20.7490	39.0526	2.0275
20.8338	36.6316	1.9637
20.9186	40.7368	2.0708
21.0034	40.8421	2.0734
21.0882	34.2105	1.8977
21.1730	36.2105	1.9523
21.2578	36.3158	1.9552
21.3426	38.9000	1.9723
21.4274	36.3000	1.9053
21.5122	33.7000	1.8358
21.5970	35.1000	1.8735
21.6818	34.9000	1.8682
21.7666	33.3000	1.8248
21.8514	35.0000	1.8708
21.9362	34.3000	1.8520
22.0210	37.3000	1.9313
22.1058	37.9000	1.9468
22.1906	34.0000	1.8439
22.2754	33.0000	1.8166
22.3602	33.2000	1.8221
22.4450	33.8000	1.8385
22.5298	31.4000	1.7720
22.6146	31.9000	1.7861
22.6994	30.3000	1.7407
22.7842	34.7000	1.8628
22.8690	34.8000	1.8655
22.9538	30.8000	1.7550
23.0385	34.0000	1.8439
23.1233	27.4000	1.6553
23.2081	29.8000	1.7263
23.2929	29.9000	1.7292
23.3777	31.9000	1.7861
23.4625	30.0000	1.7321
23.5473	29.6000	1.7205
23.6321	28.8000	1.6971
23.7169	30.4000	1.7436
23.8017	30.2000	1.7378
23.8865	29.6000	1.7205
23.9713	27.8000	1.6673
24.0561	31.1000	1.7635
24.1409	30.3000	1.7407
24.2257	32.1000	1.7916
24.3105	29.6000	1.7205
24.3953	31.7000	1.7804
24.4801	28.7000	1.6941
24.5649	28.2000	1.6793
24.6497	27.4000	1.6553
24.7345	30.6000	1.7493
24.8193	29.2000	1.7088
24.9041	29.6000	1.7205
24.9889	25.4000	1.5937
25.0737	27.3000	1.6523
25.1585	26.3810	1.5851
25.2433	28.0952	1.6358
25.3281	28.7619	1.6551
25.4129	26.8571	1.5993
25.4977	28.0000	1.6330
25.5824	29.9048	1.6876
25.6672	27.1429	1.6078
25.7520	25.2727	1.5158
25.8368	27.9091	1.5929
25.9216	25.6364	1.5266
26.0064	28.8182	1.6186
26.0912	25.1818	1.5130
26.1760	24.0000	1.4771
26.2608	28.0000	1.5954
26.3456	25.4545	1.5212
26.4304	23.5455	1.4630
26.5152	24.5455	1.4938
26.6000	22.0909	1.4171
26.6848	28.1818	1.6006
26.7696	25.9091	1.5347
26.8544	27.0000	1.5667
26.9392	22.3636	1.4259
27.0240	24.3636	1.4882
27.1088	25.5455	1.5239
27.1936	21.2727	1.3906
27.2784	21.0909	1.3847
27.3632	27.6364	1.5851
27.4480	25.6364	1.5266
27.5328	23.5455	1.4630
27.6176	21.0000	1.3817
27.7024	23.6364	1.4659
27.7872	23.3636	1.4574
27.8720	23.9091	1.4743
27.9568	23.2727	1.4545
28.0416	24.0000	1.4771
28.1263	25.4545	1.5212
28.2111	22.5455	1.4316
28.2959	24.0909	1.4799
28.3807	23.7273	1.4687
28.4655	20.2727	1.3576
28.5503	23.7273	1.4687
28.6351	22.5455	1.4316
28.7199	21.5455	1.3995
28.8047	22.2727	1.4230
28.8895	23.0909	1.4489
28.9743	22.0000	1.4142
29.0591	21.2727	1.3906
29.1439	22.3636	1.4259
29.2287	21.6364	1.4025
29.3135	18.8182	1.3080
29.3983	23.8182	1.4715
29.4831	20.6087	1.3387
29.5679	20.2609	1.3273
29.6527	20.2609	1.3273
29.7375	20.0870	1.3216
29.8223	24.6957	1.4654
29.9071	19.4783	1.3014
29.9919	20.5217	1.3359
30.0767	20.5217	1.3359
30.1615	18.3333	1.2360
30.2463	19.6667	1.2802
30.3311	21.8333	1.3489
30.4159	21.1667	1.3281
30.5007	20.4167	1.3044
30.5855	20.4167	1.3044
30.6702	18.0000	1.2247
30.7550	18.5833	1.2444
30.8398	19.5000	1.2748
30.9246	20.6667	1.3123
31.0094	20.0000	1.2910
31.0942	21.1667	1.3281
31.1790	18.0000	1.2247
31.2638	18.9167	1.2555
31.3486	20.6667	1.3123
31.4334	20.7500	1.3150
31.5182	18.7500	1.2500
31.6030	18.6667	1.2472
31.6878	19.7500	1.2829
31.7726	17.7500	1.2162
31.8574	20.7500	1.3150
31.9422	15.5833	1.1396
32.0270	18.8333	1.2528
32.1118	19.0000	1.2583
32.1966	18.1667	1.2304
32.2814	17.1667	1.1961
32.3662	21.3333	1.3333
32.4510	21.6667	1.3437
32.5358	17.0833	1.1932
32.6206	18.0000	1.2247
32.7054	17.4167	1.2047
32.7902	18.4167	1.2388
32.8750	18.6667	1.2472
32.9598	19.5000	1.2748
33.0446	17.6667	1.2134
33.1294	17.8333	1.2191
33.2142	18.5833	1.2444
33.2989	17.5833	1.2105
33.3837	18.0000	1.2247
33.4685	17.1667	1.1961
33.5533	16.8333	1.1844
33.6381	18.4167	1.2388
33.7229	16.6667	1.1785
33.8077	17.2500	1.1990
33.8925	19.0400	1.2342
33.9773	17.2000	1.1730
34.0621	18.1600	1.2053
34.1469	16.1600	1.1370
34.2317	15.6800	1.1200
34.3165	17.2000	1.1730
34.4013	15.0400	1.0969
34.4861	17.7600	1.1920
34.5709	16.9231	1.1410
34.6557	15.8462	1.1041
34.7405	15.8462	1.1041
34.8253	16.4615	1.1253
34.9101	16.9231	1.1410
34.9949	14.4615	1.0547
35.0797	17.7692	1.1691
35.1645	17.0769	1.1461
35.2493	17.4615	1.1590
35.3341	15.7692	1.1014
35.4189	14.8462	1.0686
35.5037	16.3077	1.1200
35.5885	16.0769	1.1121
35.6733	16.4615	1.1253
35.7581	18.0000	1.1767
35.8428	15.7692	1.1014
35.9276	16.3077	1.1200
36.0124	14.5385	1.0575
36.0972	13.3846	1.0147
36.1820	17.2308	1.1513
36.2668	16.0000	1.1094
36.3516	15.2308	1.0824
36.4364	14.8462	1.0686
36.5212	16.9231	1.1410
36.6060	15.6923	1.0987
36.6908	15.6923	1.0987
36.7756	15.7692	1.1014
36.8604	17.0000	1.1435
36.9452	15.6154	1.0960
37.0300	14.6923	1.0631
37.1148	15.5385	1.0933
37.1996	15.6923	1.0987
37.2844	15.6923	1.0987
37.3692	14.3077	1.0491
37.4540	14.6154	1.0603
37.5388	14.9231	1.0714
37.6236	14.3077	1.0491
37.7084	15.5385	1.0933
37.7932	15.1538	1.0797
37.8780	16.2308	1.1174
37.9628	15.8462	1.1041
38.0476	16.3077	1.1200
38.1324	18.2308	1.1842
38.2172	18.0000	1.1767
38.3020	17.5556	1.1404
38.3867	17.6296	1.1428
38.4715	19.7037	1.2081
38.5563	23.3333	1.3147
38.6411	25.2593	1.3679
38.7259	28.7407	1.4591
38.8107	28.4444	1.4515
38.8955	30.2963	1.4981
38.9803	36.4444	1.6430
39.0651	45.2857	1.7985
39.1499	58.4286	2.0429
39.2347	71.7143	2.2633
39.3195	104.8571	2.7367
39.4043	132.0000	3.0706
39.4891	178.7143	3.5729
39.5739	236.6429	4.1113
39.6587	276.5000	4.4441
39.7435	286.2143	4.5215
39.8283	256.1429	4.2774
39.9131	195.2143	3.7342
39.9979	127.7857	3.0212
40.0827	85.6429	2.4733
40.1675	62.6429	2.1153
40.2523	43.5714	1.7642
40.3371	32.2857	1.5186
40.4219	29.7143	1.4569
40.5067	24.7143	1.3286
40.5915	20.5000	1.2101
40.6763	18.5000	1.1495
40.7611	17.5000	1.1180
40.8459	18.5714	1.1518
40.9306	15.9286	1.0667
41.0154	18.3571	1.1451
41.1002	14.9286	1.0326
41.1850	14.5714	1.0202
41.2698	16.7143	1.0926
41.3546	13.3571	0.9768
41.4394	15.7143	1.0595
41.5242	13.2143	0.9715
41.6090	14.3571	1.0127
41.6938	12.2143	0.9340
41.7786	13.6429	0.9872
41.8634	14.2143	1.0076
41.9482	16.0000	1.0690
42.0330	12.8571	0.9583
42.1178	12.2143	0.9340
42.2026	13.0000	0.9636
42.2874	14.3571	1.0127
42.3722	12.0714	0.9286
42.4570	13.7143	0.9897
42.5418	14.5000	1.0177
42.6266	13.3793	0.9606
42.7114	14.0000	0.9826
42.7962	13.1724	0.9531
42.8810	13.6552	0.9704
42.9658	12.2069	0.9175
43.0506	13.5172	0.9655
43.1354	15.4483	1.0322
43.2202	12.0000	0.9097
43.3050	12.4138	0.9253
43.3898	10.6897	0.8586
43.4745	12.1333	0.8994
43.5593	13.4000	0.9452
43.6441	11.2667	0.8667
43.7289	12.8667	0.9262
43.8137	12.8667	0.9262
43.8985	13.2667	0.9404
43.9833	10.0000	0.8165
44.0681	11.7333	0.8844
44.1529	11.0667	0.8589
44.2377	10.0667	0.8192
44.3225	11.9333	0.8919
44.4073	9.8000	0.8083
44.4921	10.7333	0.8459
44.5769	11.1333	0.8615
44.6617	11.3333	0.8692
44.7465	10.5333	0.8380
44.8313	11.7333	0.8844
44.9161	11.8667	0.8894
45.0009	11.4667	0.8743
45.0857	10.1333	0.8219
45.1705	10.6667	0.8433
45.2553	10.6667	0.8433
45.3401	11.0667	0.8589
45.4249	10.2000	0.8246
45.5097	12.5333	0.9141
45.5945	10.9333	0.8537
45.6793	10.2000	0.8246
45.7641	11.3333	0.8692
45.8489	10.2667	0.8273
45.9337	9.1333	0.7803
46.0184	10.4000	0.8327
46.1032	10.8667	0.8511
46.1880	11.3333	0.8692
46.2728	8.8000	0.7659
46.3576	10.4000	0.8327
46.4424	10.1333	0.8219
46.5272	9.5333	0.7972
46.6120	9.6129	0.7875
46.6968	12.1935	0.8870
46.7816	11.2903	0.8535
46.8664	8.5806	0.7440
46.9512	10.3226	0.8161
47.0360	10.8387	0.8362
47.1208	9.1613	0.7688
47.2056	10.0645	0.8058
47.2904	9.0323	0.7634
47.3752	9.4839	0.7822
47.4600	9.8750	0.7856
47.5448	10.0625	0.7930
47.6296	10.0625	0.7930
47.7144	9.5000	0.7706
47.7992	9.3750	0.7655
47.8840	9.6250	0.7756
47.9688	10.0000	0.7906
48.0536	9.1250	0.7552
48.1384	9.0000	0.7500
48.2232	11.3125	0.8409
48.3080	9.5625	0.7731
48.3928	9.5625	0.7731
48.4776	8.9375	0.7474
48.5624	9.0625	0.7526
48.6471	9.0000	0.7500
48.7319	10.2500	0.8004
48.8167	9.9375	0.7881
48.9015	9.4375	0.7680
48.9863	8.7500	0.7395
49.0711	10.9375	0.8268
49.1559	9.8125	0.7831
49.2407	10.2500	0.8004
49.3255	10.3750	0.8053
49.4103	8.6250	0.7342
49.4951	9.6250	0.7756
49.5799	7.8750	0.7016
49.6647	8.1875	0.7153
49.7495	9.6250	0.7756
49.8343	9.1875	0.7578
49.9191	8.6875	0.7369
50.0039	10.4375	0.8077
50.0887	10.3125	0.8028
50.1735	8.5000	0.7289
50.2583	10.0625	0.7930
50.3431	9.5625	0.7731
50.4279	9.6875	0.7781
50.5127	8.5625	0.7315
50.5975	9.9394	0.7761
50.6823	7.6970	0.6830
50.7671	8.7273	0.7273
50.8519	8.6061	0.7222
50.9367	8.6061	0.7222
51.0215	9.3333	0.7521
51.1063	9.5758	0.7618
51.1910	9.8182	0.7714
51.2758	9.5758	0.7618
51.3606	10.1212	0.7832
51.4454	8.6061	0.7222
51.5302	8.7647	0.7180
51.6150	9.7647	0.7579
51.6998	8.8235	0.7204
51.7846	9.3529	0.7417
51.8694	10.2941	0.7782
51.9542	9.2353	0.7371
52.0390	8.2941	0.6985
52.1238	8.8235	0.7204
52.2086	9.5882	0.7510
52.2934	9.6471	0.7533
52.3782	7.7059	0.6733
52.4630	10.1765	0.7737
52.5478	10.0588	0.7692
52.6326	8.7647	0.7180
52.7174	8.8824	0.7228
52.8022	8.4706	0.7059
52.8870	8.1176	0.6910
52.9718	8.7647	0.7180
53.0566	9.2353	0.7371
53.1414	9.4706	0.7464
53.2262	8.0000	0.6860
53.3110	9.4706	0.7464
53.3958	8.0000	0.6860
53.4806	8.5294	0.7083
53.5654	8.8235	0.7204
53.6502	9.8824	0.7624
53.7349	11.0588	0.8065
53.8197	10.2941	0.7782
53.9045	10.5882	0.7892
53.9893	8.3529	0.7010
54.0741	9.5294	0.7487
54.1589	9.1176	0.7323
54.2437	8.4706	0.7059
54.3285	8.8824	0.7228
54.4133	8.5294	0.7083
54.4981	9.2353	0.7371
54.5829	8.6286	0.7022
54.6677	7.2000	0.6414
54.7525	9.0286	0.7183
54.8373	8.5143	0.6975
54.9221	9.3143	0.7296
55.0069	8.4000	0.6928
55.0917	8.6286	0.7022
55.1765	10.1714	0.7624
55.2613	7.8857	0.6713
55.3461	8.8000	0.7091
55.4309	9.4286	0.7340
55.5157	8.5000	0.6872
55.6005	8.5000	0.6872
55.6853	9.2222	0.7158
55.7701	9.7778	0.7370
55.8549	9.5556	0.7286
55.9397	10.6111	0.7678
56.0245	9.3333	0.7201
56.1093	11.6667	0.8051
56.1941	11.4444	0.7974
56.2788	12.0556	0.8184
56.3636	13.2222	0.8571
56.4484	14.3889	0.8941
56.5332	16.2778	0.9510
56.6180	17.6667	0.9907
56.7028	21.8333	1.1013
56.7876	24.3333	1.1627
56.8724	27.5000	1.2360
56.9572	34.6111	1.3867
57.0420	40.5556	1.5010
57.1268	47.9444	1.6320
57.2116	55.6667	1.7586
57.2964	59.1111	1.8122
57.3812	58.4444	1.8019
57.4660	59.8889	1.8241
57.5508	57.3889	1.7856
57.6356	48.9444	1.6490
57.7204	40.6111	1.5021
57.8052	33.3333	1.3608
57.8900	27.4444	1.2348
57.9748	22.2778	1.1125
58.0596	17.5000	0.9860
58.1444	16.1667	0.9477
58.2292	13.6667	0.8714
58.3140	12.0556	0.8184
58.3988	11.6667	0.8051
58.4836	10.3784	0.7490
58.5684	10.8649	0.7663
58.6532	10.3243	0.7470
58.7380	9.1351	0.7027
58.8227	9.6757	0.7232
58.9075	9.1351	0.7027
58.9923	8.9189	0.6943
59.0771	8.5946	0.6816
59.1619	8.5405	0.6794
59.2467	8.9189	0.6943
59.3315	9.1351	0.7027
59.4163	7.4595	0.6350
59.5011	6.8108	0.6068
59.5859	8.3158	0.6616
59.6707	6.8947	0.6024
59.7555	7.7368	0.6381
59.8403	8.8947	0.6842
59.9251	9.6842	0.7139
60.0099	9.5263	0.7081
60.0947	7.4737	0.6272
60.1795	9.6842	0.7139
60.2643	8.4211	0.6657
60.3491	9.2632	0.6982
60.4339	10.3158	0.7368
60.5187	8.7895	0.6801
60.6035	8.5789	0.6720
60.6883	8.3684	0.6637
60.7731	8.0526	0.6510
60.8579	8.0000	0.6489
60.9427	8.8947	0.6842
61.0275	8.4211	0.6657
61.1123	7.6316	0.6338
61.1971	7.8421	0.6425
61.2819	7.4737	0.6272
61.3667	8.1579	0.6553
61.4514	8.4211	0.6657
61.5362	7.7368	0.6381
61.6210	8.7368	0.6781
61.7058	7.4211	0.6250
61.7906	7.2632	0.6183
61.8754	7.0000	0.6070
61.9602	7.8947	0.6446
62.0450	9.1579	0.6943
62.1298	6.7368	0.5955
62.2146	7.5263	0.6294
62.2994	8.1053	0.6531
62.3842	7.8421	0.6425
62.4690	7.6410	0.6260
62.5538	7.4872	0.6196
62.6386	8.3590	0.6547
62.7234	7.2821	0.6111
62.8082	9.4872	0.6975
62.8930	7.2821	0.6111
62.9778	8.0000	0.6405
63.0626	7.4359	0.6175
63.1474	7.9487	0.6385
63.2322	7.6923	0.6281
63.3170	8.4103	0.6567
63.4018	6.7692	0.5892
63.4866	7.1795	0.6068
63.5714	7.8500	0.6265
63.6562	7.5610	0.6073
63.7410	7.7561	0.6151
63.8258	8.5366	0.6453
63.9106	7.9512	0.6228
63.9953	7.9024	0.6209
64.0801	7.5610	0.6073
64.1649	7.6098	0.6093
64.2497	7.1220	0.5894
64.3345	7.5122	0.6053
64.4193	7.4634	0.6034
64.5041	7.7561	0.6151
64.5889	7.9512	0.6228
64.6737	8.0488	0.6266
64.7585	8.9268	0.6599
64.8433	9.5814	0.6676
64.9281	7.9535	0.6082
65.0129	6.6047	0.5543
65.0977	7.4419	0.5883
65.1825	8.5116	0.6292
65.2673	7.2558	0.5809
65.3521	7.1163	0.5753
65.4369	7.4419	0.5883
65.5217	7.7674	0.6011
65.6065	8.2791	0.6205
65.6913	7.9070	0.6064
65.7761	7.9070	0.6064
65.8609	7.7209	0.5993
65.9457	6.8837	0.5658
66.0305	7.2889	0.5692
66.1153	7.5556	0.5795
66.2001	7.3778	0.5726
66.2849	7.7778	0.5879
66.3697	8.4889	0.6142
66.4545	7.9111	0.5930
66.5392	8.5333	0.6158
66.6240	7.0667	0.5604
66.7088	7.4667	0.5761
66.7936	7.2444	0.5674
66.8784	7.3333	0.5709
66.9632	6.6667	0.5443
67.0480	7.6889	0.5846
67.1328	8.2222	0.6045
67.2176	8.6957	0.6149
67.3024	8.0851	0.5866
67.3872	7.9149	0.5803
67.4720	6.7660	0.5366
67.5568	8.5106	0.6018
67.6416	8.8511	0.6137
67.7264	8.7660	0.6108
67.8112	8.3830	0.5973
67.8960	8.2553	0.5927
67.9808	8.5532	0.6033
68.0656	6.2979	0.5177
68.1504	9.1915	0.6254
68.2352	8.4255	0.5988
68.3200	8.1667	0.5833
68.4048	7.9583	0.5758
68.4896	8.2449	0.5801
68.5744	8.0408	0.5729
68.6592	8.8980	0.6026
68.7440	9.2653	0.6150
68.8288	9.0612	0.6081
68.9136	9.5918	0.6257
68.9984	9.1020	0.6095
69.0831	8.9796	0.6054
69.1679	7.6735	0.5596
69.2527	9.6327	0.6270
69.3375	7.9184	0.5685
69.4223	8.6531	0.5943
69.5071	8.6000	0.5865
69.5919	8.6800	0.5892
69.6767	9.4000	0.6132
69.7615	9.4902	0.6101
69.8463	10.3137	0.6360
69.9311	9.2157	0.6012
70.0159	8.2745	0.5696
70.1007	10.6667	0.6468
70.1855	11.0588	0.6585
70.2703	10.5490	0.6432
70.3551	10.5882	0.6444
70.4399	11.4118	0.6690
70.5247	11.6863	0.6770
70.6095	12.3922	0.6971
70.6943	12.0385	0.6805
70.7791	13.7308	0.7267
70.8639	14.3077	0.7418
70.9487	14.8679	0.7490
71.0335	17.9245	0.8224
71.1183	18.7547	0.8413
71.2031	23.9245	0.9502
71.2879	25.5094	0.9811
71.3727	29.5849	1.0566
71.4575	33.6226	1.1264
71.5423	38.4906	1.2052
71.6270	44.8302	1.3007
71.7118	48.2264	1.3490
71.7966	56.4151	1.4591
71.8814	59.6296	1.4861
71.9662	66.8148	1.5731
72.0510	66.0370	1.5639
72.1358	66.5185	1.5696
72.2206	63.7818	1.5229
72.3054	64.0000	1.5255
72.3902	55.1636	1.4163
72.4750	48.6182	1.3296
72.5598	38.7636	1.1873
72.6446	29.7818	1.0407
72.7294	25.0909	0.9552
72.8142	21.0909	0.8758
72.8990	17.2000	0.7909
72.9838	16.0364	0.7636
73.0686	13.0000	0.6814
73.1534	12.9643	0.6804
73.2382	12.4286	0.6662
73.3230	11.5000	0.6409
73.4078	10.2456	0.5996
73.4926	10.1053	0.5955
73.5774	10.2456	0.5996
73.6622	9.5088	0.5776
73.7470	10.3158	0.6016
73.8318	8.7018	0.5526
73.9166	8.8070	0.5559
74.0014	9.1228	0.5658
74.0862	8.7368	0.5537
74.1709	8.2414	0.5331
74.2557	8.7586	0.5496
74.3405	8.8621	0.5528
74.4253	9.0690	0.5592
74.5101	8.5862	0.5441
74.5949	8.4483	0.5397
74.6797	8.8814	0.5487
74.7645	8.2034	0.5273
74.8493	8.5085	0.5371
74.9341	8.5085	0.5371
75.0189	8.4746	0.5360
75.1037	8.8475	0.5476
75.1885	9.0508	0.5539
75.2733	8.6102	0.5403
75.3581	9.5667	0.5647
75.4429	9.0667	0.5497
75.5277	8.4333	0.5302
75.6125	7.3000	0.4933
75.6973	7.9000	0.5132
75.7821	8.0000	0.5164
75.8669	8.6557	0.5327
75.9517	8.5574	0.5297
76.0365	8.3607	0.5236
76.1213	7.5738	0.4983
76.2061	7.7705	0.5047
76.2909	8.6230	0.5317
76.3757	7.7049	0.5026
76.4605	8.3279	0.5225
76.5453	8.2903	0.5171
76.6301	9.1935	0.5446
76.7149	8.1290	0.5121
76.7996	7.3871	0.4882
76.8844	7.6452	0.4966
76.9692	6.3226	0.4516
77.0540	7.4839	0.4913
77.1388	7.4921	0.4877
77.2236	8.4444	0.5178
77.3084	8.2222	0.5109
77.3932	7.3016	0.4815
77.4780	6.6984	0.4611
77.5628	8.3492	0.5148
77.6476	8.0952	0.5069
77.7324	8.0625	0.5019
77.8172	9.3125	0.5395
77.9020	7.4375	0.4821
77.9868	7.7500	0.4921
78.0716	7.5313	0.4851
78.1564	7.2500	0.4760
78.2412	7.9375	0.4980
78.3260	6.9846	0.4636
78.4108	7.3538	0.4757
78.4956	7.7846	0.4894
78.5804	8.9846	0.5258
78.6652	7.9385	0.4942
78.7500	7.9077	0.4933
78.8348	7.7538	0.4884
78.9196	7.7576	0.4848
79.0044	7.8788	0.4886
79.0892	7.6970	0.4830
79.1740	8.3333	0.5025
79.2588	8.0909	0.4952
79.3435	8.7879	0.5160
79.4283	8.6061	0.5107
79.5131	8.5455	0.5089
79.5979	8.1791	0.4941
79.6827	7.4627	0.4720
79.7675	7.6418	0.4776
79.8523	8.0896	0.4914
79.9371	7.9701	0.4878
80.0219	7.2537	0.4653
80.1067	7.8824	0.4815
80.1915	7.1176	0.4575
80.2763	7.6176	0.4733
80.3611	8.2059	0.4913
80.4459	8.5000	0.5000
80.5307	7.6176	0.4733
80.6155	7.5294	0.4706
80.7003	9.1471	0.5187
80.7851	9.1594	0.5153
80.8699	8.3478	0.4919
80.9547	9.3333	0.5201
81.0395	8.0000	0.4815
81.1243	7.6812	0.4718
81.2091	7.9429	0.4764
81.2939	7.8571	0.4738
81.3787	8.1429	0.4823
81.4635	9.0286	0.5079
81.5483	7.6571	0.4677
81.6331	7.9143	0.4755
81.7179	7.2286	0.4545
81.8027	7.8000	0.4721
81.8874	7.8571	0.4738
81.9722	8.2286	0.4849
82.0570	8.2254	0.4814
82.1418	8.1690	0.4797
82.2266	8.5634	0.4911
82.3114	8.0000	0.4747
82.3962	9.0556	0.5015
82.4810	8.4722	0.4851
82.5658	8.7500	0.4930
82.6506	8.0556	0.4730
82.7354	9.0000	0.5000
82.8202	8.4722	0.4851
82.9050	8.5833	0.4883
82.9898	8.4722	0.4851
83.0746	7.8889	0.4681
83.1594	8.7222	0.4922
83.2442	9.1507	0.5007
83.3290	8.8493	0.4924
83.4138	8.8219	0.4916
83.4986	8.8767	0.4932
83.5834	9.0541	0.4947
83.6682	9.1081	0.4962
83.7530	8.6757	0.4842
83.8378	9.6216	0.5099
83.9226	9.2703	0.5005
84.0074	9.4595	0.5056
84.0922	9.2973	0.5013
84.1770	10.6757	0.5372
84.2618	11.1622	0.5493
84.3466	10.1081	0.5227
84.4313	10.8378	0.5412
84.5161	11.7867	0.5606
84.6009	13.3333	0.5963
84.6857	11.6000	0.5562
84.7705	13.5789	0.5978
84.8553	12.9474	0.5837
84.9401	15.1316	0.6310
85.0249	16.5526	0.6600
85.1097	17.9737	0.6877
85.1945	18.3947	0.6958
85.2793	18.3947	0.6958
85.3641	19.8421	0.7226
85.4489	20.8947	0.7415
85.5337	23.3684	0.7842
85.6185	24.4211	0.8017
85.7033	24.4156	0.7963
85.7881	24.4416	0.7968
85.8729	23.7403	0.7853
85.9577	22.9487	0.7671
86.0425	20.3590	0.7225
86.1273	19.6154	0.7092
86.2121	14.8205	0.6165
86.2969	13.6154	0.5909
86.3817	11.9487	0.5535
86.4665	12.1538	0.5582
86.5513	10.7179	0.5242
86.6361	11.3333	0.5391
86.7209	11.2051	0.5360
86.8057	11.1795	0.5354
86.8905	10.0759	0.5051
86.9752	9.5190	0.4909
87.0600	9.9500	0.4987
87.1448	9.8500	0.4962
87.2296	9.1000	0.4770
87.3144	8.4500	0.4596
87.3992	8.2750	0.4548
87.4840	9.1500	0.4783
87.5688	9.2250	0.4802
87.6536	8.4500	0.4596
87.7384	9.4750	0.4867
87.8232	9.3750	0.4841
87.9080	8.9750	0.4737
87.9928	9.0500	0.4757
88.0776	9.2500	0.4809
88.1624	9.7284	0.4901
88.2472	8.9512	0.4672
88.3320	8.9512	0.4672
88.4168	8.7805	0.4628
88.5016	9.9268	0.4921
88.5864	8.2683	0.4491
88.6712	9.0976	0.4711
88.7560	9.0244	0.4692
88.8408	10.0488	0.4951
88.9256	9.2439	0.4748
89.0104	9.5610	0.4829
89.0952	10.4390	0.5046
89.1800	10.4878	0.5058
89.2648	9.6829	0.4860
89.3496	9.5422	0.4795
89.4344	9.9762	0.4874
89.5192	9.4524	0.4744
89.6039	9.9762	0.4874
89.6887	9.9524	0.4868
89.7735	10.2619	0.4943
89.8583	9.8095	0.4833
89.9431	9.4048	0.4732
90.0279	11.1429	0.5151
90.1127	9.8571	0.4845
90.1975	9.3333	0.4714
90.2823	10.0000	0.4880
90.3671	10.0952	0.4903
90.4519	9.1429	0.4666
90.5367	10.3333	0.4960
90.6215	10.0233	0.4828
90.7063	10.0930	0.4845
90.7911	9.4884	0.4697
90.8759	10.6047	0.4966
90.9607	10.9767	0.5052
91.0455	9.9767	0.4817
91.1303	11.0930	0.5079
91.2151	12.0698	0.5298
91.2999	10.4884	0.4939
91.3847	10.7209	0.4993
91.4695	10.8372	0.5020
91.5543	10.3256	0.4900
91.6391	10.4884	0.4939
91.7239	11.9070	0.5262
91.8087	11.1818	0.5041
91.8935	11.4318	0.5097
91.9783	11.1818	0.5041
92.0631	10.7273	0.4938
92.1478	11.0682	0.5015
92.2326	12.0682	0.5237
92.3174	12.1591	0.5257
92.4022	11.6364	0.5143
92.4870	11.4091	0.5092
92.5718	10.9773	0.4995
92.6566	10.5000	0.4885
92.7414	12.6818	0.5369
92.8262	11.6818	0.5153
92.9110	11.0000	0.5000
92.9958	11.9101	0.5173
93.0806	11.5778	0.5072
93.1654	11.8444	0.5130
93.2502	11.4000	0.5033
93.3350	12.2667	0.5221
93.4198	13.1111	0.5398
93.5046	12.8222	0.5338
93.5894	13.0667	0.5389
93.6742	11.3333	0.5018
93.7590	11.9111	0.5145
93.8438	12.3111	0.5230
93.9286	12.7333	0.5319
94.0134	12.5333	0.5277
94.0982	13.2747	0.5401
94.1830	12.5055	0.5243
94.2678	12.7609	0.5267
94.3526	13.5000	0.5417
94.4374	13.9348	0.5504
94.5222	13.8696	0.5491
94.6070	13.9783	0.5512
94.6917	13.0435	0.5325
94.7765	13.3261	0.5382
94.8613	13.3478	0.5387
94.9461	13.1304	0.5343
95.0309	13.3913	0.5396
95.1157	13.5652	0.5430
95.2005	13.2174	0.5360
95.2853	13.6344	0.5415
95.3701	13.8710	0.5462
95.4549	13.6774	0.5423
95.5397	13.1064	0.5281
95.6245	14.2979	0.5516
95.7093	14.5745	0.5569
95.7941	14.4894	0.5552
95.8789	14.4255	0.5540
95.9637	14.8511	0.5621
96.0485	15.6809	0.5776
96.1333	14.3191	0.5520
96.2181	14.8723	0.5625
96.3029	15.2766	0.5701
96.3877	15.2340	0.5693
96.4725	15.3263	0.5680
96.5573	15.8947	0.5785
96.6421	16.0211	0.5808
96.7269	16.1458	0.5800
96.8117	16.3958	0.5844
96.8965	16.5000	0.5863
96.9813	16.7708	0.5911
97.0661	15.6458	0.5709
97.1509	17.4167	0.6024
97.2356	17.5625	0.6049
97.3204	18.8958	0.6274
97.4052	17.9792	0.6120
97.4900	19.3125	0.6343
97.5748	19.5417	0.6381
97.6596	19.9588	0.6415
97.7444	21.8557	0.6713
97.8292	21.3608	0.6636
97.9140	23.6495	0.6983
97.9988	24.9592	0.7137
98.0836	26.8163	0.7398
98.1684	27.1429	0.7443
98.2532	27.3673	0.7473
98.3380	28.4286	0.7617
98.4228	29.7755	0.7795
98.5076	32.0204	0.8084
98.5924	33.6327	0.8285
98.6772	35.0612	0.8459
98.7620	35.7959	0.8547
98.8468	37.3878	0.8735
98.9316	35.8367	0.8552
99.0164	37.2323	0.8673
99.1012	37.0303	0.8649
99.1860	36.3400	0.8525
99.2708	35.0800	0.8376
99.3556	34.0800	0.8256
99.4404	31.9400	0.7992
99.5252	31.0600	0.7882
99.6100	26.7800	0.7318
99.6948	24.5000	0.7000
99.7795	23.7600	0.6893
99.8643	21.6000	0.6573
99.9491	20.9600	0.6475
100.0339	19.9400	0.6315
100.1187	20.4000	0.6387
100.2035	18.3200	0.6053
100.2883	17.7000	0.5950
100.3731	17.4600	0.5909
100.4579	18.0000	0.5941
100.5427	17.4118	0.5843
100.6275	15.7843	0.5563
100.7123	17.2353	0.5813
100.7971	18.0392	0.5947
100.8819	17.3137	0.5827
100.9667	18.5490	0.6031
101.0515	18.0196	0.5944
101.1363	17.4314	0.5846
101.2211	17.1569	0.5800
101.3059	16.8627	0.5750
101.3907	18.0000	0.5941
101.4755	15.9216	0.5587
101.5603	17.2941	0.5823
101.6451	16.8039	0.5740
101.7299	16.1961	0.5635
101.8147	16.9608	0.5767
101.8995	17.7308	0.5839
101.9843	16.1538	0.5574
102.0691	15.7308	0.5500
102.1539	15.9808	0.5544
102.2387	17.2692	0.5763
102.3234	15.7308	0.5500
102.4082	17.5962	0.5817
102.4930	17.3269	0.5772
102.5778	16.9423	0.5708
102.6626	15.7885	0.5510
102.7474	17.3654	0.5779
102.8322	17.7500	0.5842
102.9170	17.2500	0.5760
103.0018	17.2500	0.5760
103.0866	16.8654	0.5695
103.1714	17.3654	0.5779
103.2562	16.5714	0.5618
103.3410	17.4717	0.5742
103.4258	16.6792	0.5610
103.5106	16.9057	0.5648
103.5954	16.3585	0.5556
103.6802	16.4717	0.5575
103.7650	17.2453	0.5704
103.8498	17.4528	0.5738
103.9346	18.2075	0.5861
104.0194	16.4906	0.5578
104.1042	16.2642	0.5540
104.1890	16.8868	0.5645
104.2738	16.6038	0.5597
104.3586	16.6792	0.5610
104.4434	16.2453	0.5536
104.5282	15.9623	0.5488
104.6130	17.3585	0.5723
104.6978	17.0093	0.5639
104.7826	17.6449	0.5743
104.8674	17.0926	0.5626
104.9521	16.1667	0.5472
105.0369	17.7778	0.5738
105.1217	16.9630	0.5605
105.2065	15.7778	0.5405
105.2913	16.4630	0.5522
105.3761	17.1481	0.5635
105.4609	16.4815	0.5525
105.5457	16.3148	0.5497
105.6305	16.5741	0.5540
105.7153	16.5556	0.5537
105.8001	17.2593	0.5653
105.8849	17.0185	0.5614
105.9697	16.6296	0.5549
106.0545	16.4259	0.5515
106.1393	17.1927	0.5617
106.2241	16.5138	0.5505
106.3089	16.9091	0.5545
106.3937	16.8364	0.5533
106.4785	16.8909	0.5542
106.5633	15.5091	0.5310
106.6481	16.6727	0.5506
106.7329	17.1091	0.5577
106.8177	16.6364	0.5500
106.9025	16.3091	0.5445
106.9873	16.6364	0.5500
107.0721	16.8364	0.5533
107.1569	15.6182	0.5329
107.2417	16.0364	0.5400
107.3265	16.2364	0.5433
107.4113	17.1455	0.5583
107.4960	17.1171	0.5554
107.5808	16.0000	0.5369
107.6656	18.3784	0.5754
107.7504	16.9643	0.5504
107.8352	16.4286	0.5416
107.9200	15.8929	0.5327
108.0048	16.0536	0.5354
108.0896	16.7857	0.5475
108.1744	18.0357	0.5675
108.2592	16.8214	0.5481
108.3440	16.3929	0.5410
108.4288	16.4464	0.5419
108.5136	17.3571	0.5567
108.5984	17.4464	0.5582
108.6832	17.1786	0.5539
108.7680	16.6239	0.5523
108.8528	17.1509	0.5689
108.9376	17.3010	0.5796
109.0224	16.8600	0.5807
109.1072	17.2165	0.5958
109.1920	16.4468	0.5916
109.2768	16.9130	0.6064
109.3616	17.1236	0.6203
109.4464	17.1163	0.6309
109.5312	17.4458	0.6484
109.6160	18.1750	0.6741
109.7008	17.9740	0.6833
109.7856	16.9459	0.6768
109.8704	17.5775	0.7037
109.9552	15.8824	0.6835
109.9834	18.0896	0.7348