File: XRD/Homogenization/10_W0.40Ta0.40Cr0.10Ti0.10_HIP1800C_8h_1_txt.txt
1.544427
20.0707	41.3333	2.1430
20.1555	40.1111	2.1111
20.2403	41.7778	2.1545
20.3251	38.1111	2.0578
20.4099	39.8889	2.1053
20.4946	38.6667	2.0728
20.5794	38.1111	2.0578
20.6642	39.2222	2.0876
20.7490	40.2105	2.0573
20.8338	38.5263	2.0138
20.9186	35.7895	1.9410
21.0034	38.5263	2.0138
21.0882	39.4737	2.0384
21.1730	38.3158	2.0083
21.2578	40.2105	2.0573
21.3426	35.5000	1.8841
21.4274	40.0000	2.0000
21.5122	41.6000	2.0396
21.5970	34.3000	1.8520
21.6818	35.2000	1.8762
21.7666	30.3000	1.7407
21.8514	36.6000	1.9131
21.9362	38.0000	1.9494
22.0210	33.9000	1.8412
22.1058	35.8000	1.8921
22.1906	32.9000	1.8138
22.2754	35.2000	1.8762
22.3602	33.7000	1.8358
22.4450	32.3000	1.7972
22.5298	33.1000	1.8193
22.6146	31.1000	1.7635
22.6994	31.4000	1.7720
22.7842	29.8000	1.7263
22.8690	35.1000	1.8735
22.9538	30.8000	1.7550
23.0385	28.9000	1.7000
23.1233	29.8000	1.7263
23.2081	32.5000	1.8028
23.2929	32.0000	1.7889
23.3777	31.0000	1.7607
23.4625	32.9000	1.8138
23.5473	31.7000	1.7804
23.6321	28.9000	1.7000
23.7169	30.9000	1.7578
23.8017	28.6000	1.6912
23.8865	32.4000	1.8000
23.9713	26.6000	1.6310
24.0561	31.0000	1.7607
24.1409	28.5000	1.6882
24.2257	27.3000	1.6523
24.3105	28.1000	1.6763
24.3953	29.6000	1.7205
24.4801	28.8000	1.6971
24.5649	28.9000	1.7000
24.6497	27.4000	1.6553
24.7345	29.2000	1.7088
24.8193	25.3000	1.5906
24.9041	28.6000	1.6912
24.9889	25.1000	1.5843
25.0737	26.7000	1.6340
25.1585	27.9048	1.6302
25.2433	27.3333	1.6134
25.3281	27.7143	1.6246
25.4129	25.1429	1.5474
25.4977	26.7619	1.5965
25.5824	25.4286	1.5562
25.6672	26.4762	1.5879
25.7520	26.2727	1.5455
25.8368	25.2727	1.5158
25.9216	25.5455	1.5239
26.0064	24.9091	1.5048
26.0912	23.1818	1.4517
26.1760	24.3636	1.4882
26.2608	24.1818	1.4827
26.3456	26.6364	1.5561
26.4304	24.4545	1.4910
26.5152	20.7273	1.3727
26.6000	25.3636	1.5185
26.6848	25.5455	1.5239
26.7696	23.0000	1.4460
26.8544	23.3636	1.4574
26.9392	26.7273	1.5588
27.0240	23.7273	1.4687
27.1088	20.4545	1.3636
27.1936	25.5455	1.5239
27.2784	23.6364	1.4659
27.3632	21.3636	1.3936
27.4480	23.6364	1.4659
27.5328	23.7273	1.4687
27.6176	22.2727	1.4230
27.7024	22.9091	1.4431
27.7872	23.1818	1.4517
27.8720	22.1818	1.4200
27.9568	23.1818	1.4517
28.0416	19.7273	1.3392
28.1263	22.6364	1.4345
28.2111	20.4545	1.3636
28.2959	21.6364	1.4025
28.3807	21.9091	1.4113
28.4655	22.9091	1.4431
28.5503	21.4545	1.3966
28.6351	22.8182	1.4403
28.7199	21.2727	1.3906
28.8047	22.7273	1.4374
28.8895	22.1818	1.4200
28.9743	22.6364	1.4345
29.0591	18.3636	1.2921
29.1439	21.7273	1.4054
29.2287	23.0000	1.4460
29.3135	20.8182	1.3757
29.3983	22.2727	1.4230
29.4831	21.7391	1.3749
29.5679	19.9130	1.3159
29.6527	20.0000	1.3188
29.7375	20.5217	1.3359
29.8223	19.3043	1.2956
29.9071	22.7826	1.4075
29.9919	17.7391	1.2420
30.0767	20.2609	1.3273
30.1615	20.3333	1.3017
30.2463	21.0000	1.3229
30.3311	18.7500	1.2500
30.4159	20.2500	1.2990
30.5007	18.8333	1.2528
30.5855	20.0833	1.2937
30.6702	19.3333	1.2693
30.7550	17.6667	1.2134
30.8398	19.0000	1.2583
30.9246	19.8333	1.2856
31.0094	17.4167	1.2047
31.0942	19.0000	1.2583
31.1790	17.5833	1.2105
31.2638	17.5000	1.2076
31.3486	19.2500	1.2666
31.4334	20.1667	1.2964
31.5182	20.3333	1.3017
31.6030	19.7500	1.2829
31.6878	18.4167	1.2388
31.7726	18.0833	1.2276
31.8574	18.9167	1.2555
31.9422	18.8333	1.2528
32.0270	18.3333	1.2360
32.1118	19.2500	1.2666
32.1966	15.7500	1.1456
32.2814	20.5000	1.3070
32.3662	17.2500	1.1990
32.4510	19.0000	1.2583
32.5358	16.9167	1.1873
32.6206	16.1667	1.1607
32.7054	16.4167	1.1696
32.7902	18.2500	1.2332
32.8750	18.2500	1.2332
32.9598	17.1667	1.1961
33.0446	17.4167	1.2047
33.1294	19.3333	1.2693
33.2142	17.9167	1.2219
33.2989	15.3333	1.1304
33.3837	15.2500	1.1273
33.4685	17.5000	1.2076
33.5533	17.3333	1.2019
33.6381	16.6667	1.1785
33.7229	18.4167	1.2388
33.8077	14.6667	1.1055
33.8925	16.2400	1.1398
33.9773	15.6000	1.1171
34.0621	19.0400	1.2342
34.1469	16.6400	1.1538
34.2317	15.8400	1.1257
34.3165	15.8400	1.1257
34.4013	15.7600	1.1229
34.4861	17.1200	1.1703
34.5709	15.5385	1.0933
34.6557	17.6923	1.1666
34.7405	16.0000	1.1094
34.8253	17.7692	1.1691
34.9101	16.0769	1.1121
34.9949	14.4615	1.0547
35.0797	15.0000	1.0742
35.1645	15.5385	1.0933
35.2493	16.0000	1.1094
35.3341	15.7692	1.1014
35.4189	15.3846	1.0879
35.5037	15.3077	1.0851
35.5885	16.1538	1.1147
35.6733	15.6154	1.0960
35.7581	15.3077	1.0851
35.8428	17.3077	1.1538
35.9276	16.4615	1.1253
36.0124	15.2308	1.0824
36.0972	14.8462	1.0686
36.1820	15.8462	1.1041
36.2668	14.0000	1.0377
36.3516	15.9231	1.1067
36.4364	17.0000	1.1435
36.5212	15.3846	1.0879
36.6060	17.3077	1.1538
36.6908	15.1538	1.0797
36.7756	14.9231	1.0714
36.8604	17.0769	1.1461
36.9452	16.1538	1.1147
37.0300	17.3077	1.1538
37.1148	14.5385	1.0575
37.1996	14.4615	1.0547
37.2844	15.0769	1.0769
37.3692	15.7692	1.1014
37.4540	16.0769	1.1121
37.5388	14.6154	1.0603
37.6236	15.1538	1.0797
37.7084	13.7692	1.0292
37.7932	14.2308	1.0463
37.8780	13.6154	1.0234
37.9628	15.7692	1.1014
38.0476	15.6154	1.0960
38.1324	15.5385	1.0933
38.2172	16.5385	1.1279
38.3020	19.2593	1.1944
38.3867	19.5556	1.2036
38.4715	19.7778	1.2104
38.5563	20.6667	1.2373
38.6411	21.0370	1.2483
38.7259	25.3333	1.3699
38.8107	30.6667	1.5072
38.8955	29.4815	1.4778
38.9803	32.8889	1.5608
39.0651	37.5000	1.6366
39.1499	46.8571	1.8295
39.2347	55.7143	1.9949
39.3195	77.0000	2.3452
39.4043	106.3571	2.7563
39.4891	151.2857	3.2873
39.5739	213.0000	3.9005
39.6587	275.2857	4.4343
39.7435	320.4286	4.7841
39.8283	308.1429	4.6915
39.9131	232.9286	4.0789
39.9979	151.1429	3.2857
40.0827	94.2143	2.5941
40.1675	59.0000	2.0529
40.2523	47.5714	1.8434
40.3371	35.2857	1.5876
40.4219	29.2857	1.4463
40.5067	26.2857	1.3702
40.5915	22.3571	1.2637
40.6763	19.7143	1.1867
40.7611	19.0714	1.1672
40.8459	17.0714	1.1043
40.9306	16.5714	1.0880
41.0154	16.0714	1.0714
41.1002	16.6429	1.0903
41.1850	14.7857	1.0277
41.2698	17.7857	1.1271
41.3546	14.2143	1.0076
41.4394	14.5714	1.0202
41.5242	15.2143	1.0425
41.6090	15.8571	1.0643
41.6938	13.0000	0.9636
41.7786	14.6429	1.0227
41.8634	12.5714	0.9476
41.9482	12.0000	0.9258
42.0330	13.7857	0.9923
42.1178	14.0714	1.0025
42.2026	14.3571	1.0127
42.2874	12.0714	0.9286
42.3722	13.6429	0.9872
42.4570	14.1429	1.0051
42.5418	11.6429	0.9119
42.6266	11.3793	0.8859
42.7114	13.8621	0.9778
42.7962	13.4483	0.9631
42.8810	15.1724	1.0229
42.9658	13.2414	0.9556
43.0506	16.0690	1.0527
43.1354	13.5862	0.9680
43.2202	12.9655	0.9456
43.3050	11.7931	0.9018
43.3898	11.8621	0.9045
43.4745	11.6000	0.8794
43.5593	13.6000	0.9522
43.6441	11.4667	0.8743
43.7289	11.2000	0.8641
43.8137	11.4667	0.8743
43.8985	12.0000	0.8944
43.9833	11.7333	0.8844
44.0681	11.1333	0.8615
44.1529	10.6000	0.8406
44.2377	11.8000	0.8869
44.3225	11.0000	0.8563
44.4073	10.5333	0.8380
44.4921	11.6667	0.8819
44.5769	11.4000	0.8718
44.6617	10.4667	0.8353
44.7465	10.4000	0.8327
44.8313	10.0667	0.8192
44.9161	11.4667	0.8743
45.0009	11.8000	0.8869
45.0857	11.2000	0.8641
45.1705	12.9333	0.9286
45.2553	10.5333	0.8380
45.3401	11.6000	0.8794
45.4249	11.0000	0.8563
45.5097	10.5333	0.8380
45.5945	10.3333	0.8300
45.6793	10.1333	0.8219
45.7641	10.6667	0.8433
45.8489	10.8667	0.8511
45.9337	11.7333	0.8844
46.0184	10.5333	0.8380
46.1032	10.1333	0.8219
46.1880	11.2000	0.8641
46.2728	8.7333	0.7630
46.3576	10.6667	0.8433
46.4424	12.0667	0.8969
46.5272	11.3333	0.8692
46.6120	10.0000	0.8032
46.6968	10.8387	0.8362
46.7816	10.3871	0.8186
46.8664	11.7419	0.8704
46.9512	10.7097	0.8312
47.0360	11.0323	0.8437
47.1208	11.6129	0.8656
47.2056	10.2581	0.8135
47.2904	8.7742	0.7524
47.3752	10.5161	0.8237
47.4600	9.0000	0.7500
47.5448	11.3750	0.8432
47.6296	9.2500	0.7603
47.7144	9.3125	0.7629
47.7992	8.8750	0.7448
47.8840	8.4375	0.7262
47.9688	8.2500	0.7181
48.0536	10.4375	0.8077
48.1384	9.7500	0.7806
48.2232	9.3125	0.7629
48.3080	10.3125	0.8028
48.3928	9.0000	0.7500
48.4776	7.7500	0.6960
48.5624	8.4375	0.7262
48.6471	9.3125	0.7629
48.7319	9.1250	0.7552
48.8167	8.8750	0.7448
48.9015	10.6875	0.8173
48.9863	10.1875	0.7979
49.0711	8.6875	0.7369
49.1559	8.1250	0.7126
49.2407	8.1875	0.7153
49.3255	9.7500	0.7806
49.4103	9.0000	0.7500
49.4951	8.8750	0.7448
49.5799	9.0625	0.7526
49.6647	9.1875	0.7578
49.7495	8.6875	0.7369
49.8343	9.0625	0.7526
49.9191	8.8125	0.7421
50.0039	7.1250	0.6673
50.0887	9.5000	0.7706
50.1735	8.4375	0.7262
50.2583	8.8750	0.7448
50.3431	9.1875	0.7578
50.4279	9.8750	0.7856
50.5127	8.3125	0.7208
50.5975	10.4848	0.7971
50.6823	8.7879	0.7298
50.7671	10.4242	0.7948
50.8519	8.7273	0.7273
50.9367	10.2424	0.7879
51.0215	9.2727	0.7497
51.1063	8.0606	0.6989
51.1910	7.6364	0.6803
51.2758	8.6061	0.7222
51.3606	9.2121	0.7472
51.4454	8.7273	0.7273
51.5302	9.5882	0.7510
51.6150	7.9412	0.6835
51.6998	7.5294	0.6655
51.7846	9.1765	0.7347
51.8694	8.1765	0.6935
51.9542	7.4706	0.6629
52.0390	9.4118	0.7441
52.1238	8.2941	0.6985
52.2086	9.1176	0.7323
52.2934	8.6471	0.7132
52.3782	7.8235	0.6784
52.4630	8.1176	0.6910
52.5478	8.8824	0.7228
52.6326	8.0588	0.6885
52.7174	8.6471	0.7132
52.8022	10.2353	0.7759
52.8870	8.4118	0.7034
52.9718	8.2353	0.6960
53.0566	8.3529	0.7010
53.1414	10.0000	0.7670
53.2262	7.5882	0.6681
53.3110	7.8235	0.6784
53.3958	7.2353	0.6524
53.4806	8.6471	0.7132
53.5654	8.2941	0.6985
53.6502	7.9412	0.6835
53.7349	8.7059	0.7156
53.8197	8.5882	0.7108
53.9045	7.1176	0.6471
53.9893	8.0588	0.6885
54.0741	8.8824	0.7228
54.1589	8.8235	0.7204
54.2437	9.2353	0.7371
54.3285	8.5294	0.7083
54.4133	9.1765	0.7347
54.4981	7.3529	0.6577
54.5829	9.4286	0.7340
54.6677	9.5429	0.7384
54.7525	8.7429	0.7068
54.8373	8.4571	0.6952
54.9221	8.5143	0.6975
55.0069	8.2286	0.6857
55.0917	8.9143	0.7137
55.1765	10.0571	0.7581
55.2613	7.7714	0.6664
55.3461	8.4000	0.6928
55.4309	9.6571	0.7429
55.5157	8.2222	0.6759
55.6005	8.6111	0.6917
55.6853	10.7222	0.7718
55.7701	9.6111	0.7307
55.8549	9.4444	0.7244
55.9397	9.5000	0.7265
56.0245	8.3333	0.6804
56.1093	8.8889	0.7027
56.1941	9.1667	0.7136
56.2788	9.8333	0.7391
56.3636	10.7778	0.7738
56.4484	12.7778	0.8425
56.5332	13.6111	0.8696
56.6180	11.8889	0.8127
56.7028	15.3333	0.9230
56.7876	19.1667	1.0319
56.8724	20.3333	1.0628
56.9572	23.0556	1.1318
57.0420	28.7778	1.2644
57.1268	33.7778	1.3699
57.2116	35.4444	1.4033
57.2964	46.8333	1.6130
57.3812	52.0556	1.7006
57.4660	57.8333	1.7925
57.5508	58.8333	1.8079
57.6356	57.1111	1.7812
57.7204	44.5000	1.5723
57.8052	35.1667	1.3977
57.8900	25.2222	1.1837
57.9748	19.8889	1.0512
58.0596	16.0556	0.9444
58.1444	13.6111	0.8696
58.2292	12.8889	0.8462
58.3140	12.5556	0.8352
58.3988	9.7778	0.7370
58.4836	9.6216	0.7212
58.5684	9.8378	0.7292
58.6532	11.4054	0.7852
58.7380	8.3243	0.6708
58.8227	9.6216	0.7212
58.9075	8.5405	0.6794
58.9923	8.6486	0.6837
59.0771	8.2703	0.6686
59.1619	8.5946	0.6816
59.2467	8.3243	0.6708
59.3315	7.5135	0.6373
59.4163	7.6757	0.6441
59.5011	8.0541	0.6598
59.5859	8.4737	0.6678
59.6707	7.2632	0.6183
59.7555	9.1579	0.6943
59.8403	7.1579	0.6138
59.9251	8.8947	0.6842
60.0099	7.0526	0.6093
60.0947	7.8421	0.6425
60.1795	7.9474	0.6467
60.2643	7.4211	0.6250
60.3491	8.0000	0.6489
60.4339	7.7368	0.6381
60.5187	7.2105	0.6160
60.6035	7.1579	0.6138
60.6883	8.1579	0.6553
60.7731	7.1579	0.6138
60.8579	7.1053	0.6115
60.9427	7.1053	0.6115
61.0275	7.7895	0.6403
61.1123	7.4737	0.6272
61.1971	6.7368	0.5955
61.2819	7.6316	0.6338
61.3667	8.3684	0.6637
61.4514	7.3684	0.6227
61.5362	6.7368	0.5955
61.6210	6.5263	0.5861
61.7058	8.1053	0.6531
61.7906	7.3158	0.6205
61.8754	6.1579	0.5693
61.9602	8.2105	0.6574
62.0450	6.3158	0.5766
62.1298	7.3158	0.6205
62.2146	8.2105	0.6574
62.2994	10.5789	0.7462
62.3842	9.8421	0.7197
62.4690	9.4872	0.6975
62.5538	8.2051	0.6487
62.6386	7.0256	0.6002
62.7234	7.2821	0.6111
62.8082	6.6667	0.5847
62.8930	7.1795	0.6068
62.9778	6.0000	0.5547
63.0626	7.1795	0.6068
63.1474	7.2821	0.6111
63.2322	8.3590	0.6547
63.3170	7.3333	0.6132
63.4018	7.9487	0.6385
63.4866	6.2051	0.5641
63.5714	7.0500	0.5937
63.6562	7.4634	0.6034
63.7410	6.2439	0.5519
63.8258	7.0732	0.5874
63.9106	7.1707	0.5914
63.9953	7.4634	0.6034
64.0801	8.1951	0.6323
64.1649	7.1220	0.5894
64.2497	7.6585	0.6112
64.3345	6.2927	0.5540
64.4193	7.3659	0.5994
64.5041	6.2927	0.5540
64.5889	8.0976	0.6285
64.6737	6.3415	0.5562
64.7585	7.2683	0.5954
64.8433	6.0465	0.5303
64.9281	7.3488	0.5846
65.0129	6.9767	0.5696
65.0977	7.1163	0.5753
65.1825	6.0000	0.5283
65.2673	6.7907	0.5620
65.3521	5.6279	0.5116
65.4369	6.5581	0.5523
65.5217	6.8372	0.5639
65.6065	6.9302	0.5677
65.6913	6.9302	0.5677
65.7761	7.6744	0.5975
65.8609	7.0698	0.5734
65.9457	7.6744	0.5975
66.0305	6.8444	0.5515
66.1153	7.5556	0.5795
66.2001	6.9333	0.5551
66.2849	7.2889	0.5692
66.3697	6.3111	0.5296
66.4545	6.4000	0.5333
66.5392	6.9333	0.5551
66.6240	6.1778	0.5240
66.7088	6.5333	0.5389
66.7936	6.7556	0.5479
66.8784	6.0000	0.5164
66.9632	6.5333	0.5389
67.0480	6.5778	0.5407
67.1328	7.1556	0.5639
67.2176	7.6087	0.5752
67.3024	7.0213	0.5466
67.3872	7.4043	0.5613
67.4720	6.0000	0.5053
67.5568	7.7872	0.5756
67.6416	7.0638	0.5483
67.7264	6.5957	0.5298
67.8112	6.1277	0.5106
67.8960	6.8511	0.5399
67.9808	6.5532	0.5281
68.0656	6.5532	0.5281
68.1504	8.0851	0.5866
68.2352	6.3404	0.5194
68.3200	6.7083	0.5287
68.4048	6.7917	0.5320
68.4896	7.3878	0.5491
68.5744	6.6531	0.5211
68.6592	5.3878	0.4689
68.7440	6.2857	0.5065
68.8288	6.8163	0.5275
68.9136	7.1837	0.5415
68.9984	7.7551	0.5626
69.0831	7.3878	0.5491
69.1679	7.6735	0.5596
69.2527	8.1633	0.5772
69.3375	7.4286	0.5506
69.4223	7.7143	0.5611
69.5071	7.5200	0.5485
69.5919	7.5200	0.5485
69.6767	8.7600	0.5919
69.7615	7.2157	0.5319
69.8463	7.9216	0.5574
69.9311	8.4314	0.5750
70.0159	8.5098	0.5777
70.1007	8.7059	0.5843
70.1855	8.7451	0.5856
70.2703	9.6078	0.6138
70.3551	9.1373	0.5986
70.4399	10.2353	0.6335
70.5247	9.7255	0.6176
70.6095	9.6078	0.6138
70.6943	10.0769	0.6226
70.7791	10.3846	0.6320
70.8639	11.0769	0.6527
70.9487	11.4717	0.6579
71.0335	12.7170	0.6927
71.1183	14.9434	0.7509
71.2031	15.0566	0.7538
71.2879	16.9811	0.8005
71.3727	20.5283	0.8801
71.4575	22.9434	0.9305
71.5423	25.6604	0.9840
71.6270	31.8113	1.0956
71.7118	34.5283	1.1415
71.7966	40.9434	1.2430
71.8814	47.2593	1.3230
71.9662	52.2593	1.3912
72.0510	58.5556	1.4727
72.1358	66.8519	1.5735
72.2206	67.6000	1.5679
72.3054	68.8727	1.5825
72.3902	62.7273	1.5103
72.4750	57.2364	1.4427
72.5598	44.9091	1.2779
72.6446	35.4182	1.1349
72.7294	28.6909	1.0214
72.8142	21.6727	0.8877
72.8990	17.7091	0.8025
72.9838	13.6364	0.7042
73.0686	13.3214	0.6898
73.1534	12.0714	0.6566
73.2382	12.3571	0.6643
73.3230	9.8929	0.5944
73.4078	9.4737	0.5766
73.4926	8.7368	0.5537
73.5774	8.5614	0.5481
73.6622	7.7895	0.5228
73.7470	7.2982	0.5060
73.8318	7.4386	0.5109
73.9166	7.9649	0.5286
74.0014	7.0526	0.4975
74.0862	8.8772	0.5581
74.1709	7.4138	0.5056
74.2557	7.4483	0.5068
74.3405	6.5517	0.4753
74.4253	7.6897	0.5149
74.5101	6.9655	0.4901
74.5949	6.9310	0.4889
74.6797	8.6102	0.5403
74.7645	8.4068	0.5338
74.8493	7.4576	0.5028
74.9341	6.8136	0.4806
75.0189	7.1864	0.4936
75.1037	6.7458	0.4782
75.1885	6.9831	0.4865
75.2733	7.2203	0.4947
75.3581	7.3667	0.4955
75.4429	6.0000	0.4472
75.5277	7.0333	0.4842
75.6125	6.4333	0.4631
75.6973	6.6667	0.4714
75.7821	6.0000	0.4472
75.8669	6.5902	0.4648
75.9517	6.5574	0.4637
76.0365	6.2623	0.4531
76.1213	6.5574	0.4637
76.2061	6.6885	0.4683
76.2909	7.4426	0.4940
76.3757	6.7541	0.4706
76.4605	7.1475	0.4841
76.5453	7.1613	0.4806
76.6301	6.9677	0.4741
76.7149	6.0000	0.4399
76.7996	6.0968	0.4435
76.8844	6.2258	0.4481
76.9692	7.4516	0.4903
77.0540	6.8387	0.4697
77.1388	6.1270	0.4410
77.2236	5.6190	0.4224
77.3084	6.1905	0.4433
77.3932	7.1746	0.4772
77.4780	7.0159	0.4719
77.5628	5.7778	0.4283
77.6476	5.8095	0.4295
77.7324	7.2813	0.4770
77.8172	5.8125	0.4262
77.9020	6.3438	0.4452
77.9868	6.4375	0.4485
78.0716	6.2500	0.4419
78.1564	5.7813	0.4250
78.2412	6.8438	0.4625
78.3260	6.9846	0.4636
78.4108	6.7692	0.4564
78.4956	6.4308	0.4448
78.5804	7.1692	0.4697
78.6652	6.8615	0.4595
78.7500	6.7385	0.4553
78.8348	6.6769	0.4533
78.9196	6.3030	0.4370
79.0044	6.3333	0.4381
79.0892	6.3636	0.4391
79.1740	6.6970	0.4505
79.2588	6.1818	0.4328
79.3435	5.6970	0.4155
79.4283	6.1515	0.4318
79.5131	6.6364	0.4484
79.5979	5.8209	0.4168
79.6827	6.5075	0.4407
79.7675	6.8060	0.4507
79.8523	6.3582	0.4357
79.9371	6.0597	0.4253
80.0219	6.6567	0.4458
80.1067	6.1471	0.4252
80.1915	7.0000	0.4537
80.2763	6.4118	0.4343
80.3611	6.3824	0.4333
80.4459	6.4118	0.4343
80.5307	6.2353	0.4282
80.6155	6.2353	0.4282
80.7003	6.3824	0.4333
80.7851	6.5797	0.4367
80.8699	6.2899	0.4270
80.9547	7.0435	0.4518
81.0395	5.7391	0.4079
81.1243	6.3188	0.4280
81.2091	5.8571	0.4091
81.2939	5.6286	0.4010
81.3787	6.1429	0.4189
81.4635	6.4857	0.4305
81.5483	6.2571	0.4228
81.6331	6.0857	0.4170
81.7179	6.7429	0.4389
81.8027	7.6000	0.4660
81.8874	6.0857	0.4170
81.9722	7.1714	0.4527
82.0570	6.9296	0.4418
82.1418	6.5352	0.4291
82.2266	6.7887	0.4373
82.3114	5.8310	0.4053
82.3962	6.0278	0.4092
82.4810	6.8611	0.4366
82.5658	7.3056	0.4505
82.6506	6.6667	0.4303
82.7354	7.3611	0.4522
82.8202	6.5278	0.4258
82.9050	6.2778	0.4176
82.9898	7.9722	0.4706
83.0746	6.6389	0.4294
83.1594	7.5000	0.4564
83.2442	7.1781	0.4435
83.3290	7.2055	0.4443
83.4138	7.0685	0.4401
83.4986	6.5753	0.4244
83.5834	7.6757	0.4555
83.6682	7.0000	0.4350
83.7530	7.0270	0.4358
83.8378	7.8919	0.4618
83.9226	7.7838	0.4587
84.0074	7.9730	0.4642
84.0922	7.7838	0.4587
84.1770	7.7568	0.4579
84.2618	7.8649	0.4610
84.3466	8.5405	0.4804
84.4313	8.5676	0.4812
84.5161	9.2000	0.4953
84.6009	9.2267	0.4960
84.6857	10.3733	0.5259
84.7705	11.6053	0.5526
84.8553	11.8684	0.5589
84.9401	13.0526	0.5861
85.0249	14.0263	0.6075
85.1097	13.1579	0.5884
85.1945	15.4737	0.6381
85.2793	17.7368	0.6832
85.3641	19.8684	0.7231
85.4489	20.2632	0.7302
85.5337	22.1842	0.7641
85.6185	22.7632	0.7740
85.7033	23.7662	0.7857
85.7881	26.7792	0.8340
85.8729	26.1299	0.8238
85.9577	24.1282	0.7866
86.0425	25.3077	0.8056
86.1273	21.7436	0.7467
86.2121	18.2564	0.6842
86.2969	16.4615	0.6497
86.3817	14.6410	0.6127
86.4665	12.7179	0.5711
86.5513	9.8974	0.5038
86.6361	11.1026	0.5336
86.7209	10.4103	0.5167
86.8057	9.2564	0.4872
86.8905	8.8354	0.4730
86.9752	8.8861	0.4743
87.0600	9.0750	0.4763
87.1448	8.5250	0.4617
87.2296	10.4000	0.5099
87.3144	8.1750	0.4521
87.3992	8.4500	0.4596
87.4840	8.3750	0.4576
87.5688	9.6250	0.4905
87.6536	8.4500	0.4596
87.7384	9.4250	0.4854
87.8232	9.1750	0.4789
87.9080	8.3000	0.4555
87.9928	8.5000	0.4610
88.0776	8.3000	0.4555
88.1624	8.0741	0.4465
88.2472	8.8780	0.4653
88.3320	8.7317	0.4615
88.4168	9.1951	0.4736
88.5016	9.7073	0.4866
88.5864	8.3659	0.4517
88.6712	9.6829	0.4860
88.7560	9.6341	0.4847
88.8408	9.5610	0.4829
88.9256	8.5122	0.4556
89.0104	8.3415	0.4511
89.0952	8.8293	0.4641
89.1800	8.1951	0.4471
89.2648	10.1707	0.4981
89.3496	8.8434	0.4616
89.4344	8.9048	0.4605
89.5192	10.6905	0.5045
89.6039	8.5952	0.4524
89.6887	9.1429	0.4666
89.7735	9.8333	0.4839
89.8583	9.5952	0.4780
89.9431	10.0952	0.4903
90.0279	10.4286	0.4983
90.1127	10.0476	0.4891
90.1975	9.4286	0.4738
90.2823	10.1190	0.4908
90.3671	8.8571	0.4592
90.4519	9.5952	0.4780
90.5367	10.5238	0.5006
90.6215	10.1628	0.4862
90.7063	9.4884	0.4697
90.7911	10.5581	0.4955
90.8759	10.5349	0.4950
90.9607	10.6744	0.4982
91.0455	9.9070	0.4800
91.1303	9.8140	0.4777
91.2151	11.3953	0.5148
91.2999	10.2558	0.4884
91.3847	10.3488	0.4906
91.4695	10.5581	0.4955
91.5543	10.3023	0.4895
91.6391	11.2558	0.5116
91.7239	11.4884	0.5169
91.8087	10.5455	0.4896
91.8935	10.4545	0.4874
91.9783	11.4318	0.5097
92.0631	11.0000	0.5000
92.1478	11.8636	0.5193
92.2326	10.3636	0.4853
92.3174	11.3409	0.5077
92.4022	11.7045	0.5158
92.4870	11.4773	0.5107
92.5718	11.9318	0.5207
92.6566	10.9091	0.4979
92.7414	11.6136	0.5138
92.8262	11.8864	0.5198
92.9110	11.5227	0.5117
92.9958	11.3933	0.5060
93.0806	12.8222	0.5338
93.1654	13.4444	0.5466
93.2502	12.7778	0.5329
93.3350	12.6667	0.5305
93.4198	12.6667	0.5305
93.5046	12.7778	0.5329
93.5894	13.0667	0.5389
93.6742	12.0000	0.5164
93.7590	12.6222	0.5296
93.8438	11.4667	0.5048
93.9286	12.9111	0.5356
94.0134	12.7111	0.5315
94.0982	13.2308	0.5392
94.1830	12.6813	0.5279
94.2678	12.2609	0.5163
94.3526	11.8043	0.5066
94.4374	13.5435	0.5426
94.5222	13.3478	0.5387
94.6070	12.3478	0.5181
94.6917	12.1739	0.5144
94.7765	14.0435	0.5525
94.8613	12.6739	0.5249
94.9461	13.2174	0.5360
95.0309	13.3913	0.5396
95.1157	12.6739	0.5249
95.2005	12.6957	0.5253
95.2853	12.9892	0.5285
95.3701	13.1398	0.5316
95.4549	14.2581	0.5537
95.5397	13.9787	0.5454
95.6245	13.9787	0.5454
95.7093	13.7447	0.5408
95.7941	15.6383	0.5768
95.8789	14.2128	0.5499
95.9637	14.3404	0.5524
96.0485	13.7872	0.5416
96.1333	15.6383	0.5768
96.2181	15.2979	0.5705
96.3029	14.8936	0.5629
96.3877	15.3830	0.5721
96.4725	14.0842	0.5445
96.5573	15.0316	0.5625
96.6421	15.0737	0.5633
96.7269	15.9792	0.5770
96.8117	15.1458	0.5617
96.8965	14.8750	0.5567
96.9813	15.4375	0.5671
97.0661	15.7083	0.5721
97.1509	16.0833	0.5789
97.2356	16.4375	0.5852
97.3204	16.8958	0.5933
97.4052	17.4583	0.6031
97.4900	17.7083	0.6074
97.5748	18.6250	0.6229
97.6596	18.5567	0.6186
97.7444	19.1959	0.6291
97.8292	20.8454	0.6556
97.9140	21.0309	0.6585
97.9988	21.2041	0.6578
98.0836	23.3673	0.6906
98.1684	23.7755	0.6966
98.2532	26.0000	0.7284
98.3380	27.5102	0.7493
98.4228	27.2653	0.7459
98.5076	29.9796	0.7822
98.5924	30.7551	0.7922
98.6772	33.2449	0.8237
98.7620	32.7959	0.8181
98.8468	34.3265	0.8370
98.9316	35.3061	0.8488
99.0164	36.2424	0.8557
99.1012	37.0909	0.8656
99.1860	36.5600	0.8551
99.2708	36.4600	0.8539
99.3556	35.7400	0.8455
99.4404	34.0200	0.8249
99.5252	33.1800	0.8146
99.6100	31.0000	0.7874
99.6948	27.9000	0.7470
99.7795	26.0000	0.7211
99.8643	23.7000	0.6885
99.9491	21.8200	0.6606
100.0339	21.7200	0.6591
100.1187	19.8200	0.6296
100.2035	18.4800	0.6079
100.2883	18.5000	0.6083
100.3731	17.9800	0.5997
100.4579	17.9804	0.5938
100.5427	17.6471	0.5882
100.6275	18.7647	0.6066
100.7123	17.1961	0.5807
100.7971	17.5294	0.5863
100.8819	17.1765	0.5803
100.9667	16.6471	0.5713
101.0515	16.8039	0.5740
101.1363	17.6078	0.5876
101.2211	16.0588	0.5611
101.3059	16.0392	0.5608
101.3907	18.3137	0.5992
101.4755	16.0000	0.5601
101.5603	16.2941	0.5652
101.6451	16.7255	0.5727
101.7299	15.8627	0.5577
101.8147	16.0588	0.5611
101.8995	16.6538	0.5659
101.9843	16.7500	0.5676
102.0691	17.4231	0.5788
102.1539	16.9808	0.5714
102.2387	15.7692	0.5507
102.3234	16.2115	0.5584
102.4082	16.3846	0.5613
102.4930	16.7692	0.5679
102.5778	16.1154	0.5567
102.6626	16.1346	0.5570
102.7474	17.2308	0.5756
102.8322	15.1923	0.5405
102.9170	16.4423	0.5623
103.0018	16.7308	0.5672
103.0866	16.2115	0.5584
103.1714	16.2308	0.5587
103.2562	15.7905	0.5484
103.3410	16.5094	0.5581
103.4258	17.1509	0.5689
103.5106	16.8302	0.5635
103.5954	16.4717	0.5575
103.6802	15.9811	0.5491
103.7650	17.0566	0.5673
103.8498	17.3962	0.5729
103.9346	17.0377	0.5670
104.0194	17.0755	0.5676
104.1042	17.4151	0.5732
104.1890	15.6226	0.5429
104.2738	17.0755	0.5676
104.3586	16.1698	0.5524
104.4434	15.8302	0.5465
104.5282	16.1321	0.5517
104.6130	16.2264	0.5533
104.6978	15.9626	0.5462
104.7826	16.5421	0.5561
104.8674	16.1667	0.5472
104.9521	16.5370	0.5534
105.0369	16.2778	0.5490
105.1217	16.7222	0.5565
105.2065	17.4630	0.5687
105.2913	16.2407	0.5484
105.3761	16.8333	0.5583
105.4609	16.5556	0.5537
105.5457	17.1481	0.5635
105.6305	16.1667	0.5472
105.7153	15.9074	0.5428
105.8001	16.8519	0.5586
105.8849	15.8148	0.5412
105.9697	16.4444	0.5518
106.0545	15.7037	0.5393
106.1393	16.3119	0.5471
106.2241	16.3303	0.5474
106.3089	15.7818	0.5357
106.3937	16.1636	0.5421
106.4785	15.5636	0.5320
106.5633	16.4909	0.5476
106.6481	16.3091	0.5445
106.7329	17.9091	0.5706
106.8177	15.8545	0.5369
106.9025	16.5455	0.5485
106.9873	16.6182	0.5497
107.0721	15.4909	0.5307
107.1569	17.8909	0.5703
107.2417	16.2364	0.5433
107.3265	15.6182	0.5329
107.4113	15.6909	0.5341
107.4960	16.3604	0.5429
107.5808	15.7297	0.5324
107.6656	16.8649	0.5512
107.7504	17.4464	0.5582
107.8352	16.2321	0.5384
107.9200	16.3214	0.5399
108.0048	17.1071	0.5527
108.0896	16.2143	0.5381
108.1744	17.1250	0.5530
108.2592	16.2679	0.5390
108.3440	15.9643	0.5339
108.4288	15.2857	0.5225
108.5136	16.8750	0.5489
108.5984	16.9286	0.5498
108.6832	16.1071	0.5363
108.7680	16.8807	0.5565
108.8528	17.0755	0.5676
108.9376	16.3883	0.5641
109.0224	16.5600	0.5755
109.1072	16.5361	0.5839
109.1920	16.8936	0.5995
109.2768	16.5000	0.5989
109.3616	17.1011	0.6199
109.4464	16.9767	0.6283
109.5312	16.6024	0.6325
109.6160	17.1500	0.6548
109.7008	16.8831	0.6622
109.7856	15.8378	0.6543
109.8704	17.0986	0.6940
109.9552	16.5294	0.6973
109.9834	17.3433	0.7195