File: XRD/Homogenization/10_W0.40Ta0.40Cr0.10Ti0.10_HIP1800C_10 h_fast_cooling.xye
1.544427
20.0636	21.8400	0.3816
20.1343	22.6867	0.3889
20.2049	22.1600	0.3844
20.2756	21.6600	0.3800
20.3463	21.8533	0.3817
20.4169	21.9733	0.3827
20.4876	21.7400	0.3807
20.5582	22.1333	0.3841
20.6289	21.6467	0.3799
20.6996	21.7667	0.3809
20.7702	21.8933	0.3820
20.8409	20.8733	0.3730
20.9116	21.4600	0.3782
20.9822	21.5400	0.3789
21.0529	21.4267	0.3779
21.1236	21.7400	0.3807
21.1942	21.5133	0.3787
21.2649	20.9467	0.3737
21.3355	21.4200	0.3779
21.4062	20.8533	0.3729
21.4769	20.8933	0.3732
21.5475	21.1667	0.3756
21.6182	21.2600	0.3765
21.6889	20.4800	0.3695
21.7595	21.0000	0.3742
21.8302	21.2133	0.3761
21.9009	21.0133	0.3743
21.9715	20.6867	0.3714
22.0422	20.0000	0.3651
22.1129	20.3133	0.3680
22.1835	20.1733	0.3667
22.2542	19.6800	0.3622
22.3248	20.7133	0.3716
22.3955	19.6267	0.3617
22.4662	20.2733	0.3676
22.5368	19.8267	0.3636
22.6075	20.6333	0.3709
22.6782	19.7800	0.3631
22.7488	20.6267	0.3708
22.8195	20.4200	0.3690
22.8902	19.7000	0.3624
22.9608	19.5267	0.3608
23.0315	19.7067	0.3625
23.1021	20.1933	0.3669
23.1728	19.1267	0.3571
23.2435	19.7067	0.3625
23.3141	20.2267	0.3672
23.3848	19.8667	0.3639
23.4555	19.6467	0.3619
23.5261	19.4200	0.3598
23.5968	19.3600	0.3593
23.6675	18.5533	0.3517
23.7381	19.4933	0.3605
23.8088	18.2533	0.3488
23.8794	19.6067	0.3615
23.9501	19.0667	0.3565
24.0208	18.5000	0.3512
24.0914	19.3000	0.3587
24.1621	18.4533	0.3507
24.2328	18.7133	0.3532
24.3034	19.0333	0.3562
24.3741	19.1133	0.3570
24.4448	18.6067	0.3522
24.5154	18.6733	0.3528
24.5861	18.7333	0.3534
24.6568	19.2600	0.3583
24.7274	19.4200	0.3598
24.7981	18.1000	0.3474
24.8687	17.9333	0.3458
24.9394	18.8800	0.3548
25.0101	18.4333	0.3506
25.0807	17.5400	0.3420
25.1514	17.7333	0.3438
25.2221	17.7333	0.3438
25.2927	18.4400	0.3506
25.3634	18.2933	0.3492
25.4341	18.0733	0.3471
25.5047	18.0533	0.3469
25.5754	17.7267	0.3438
25.6460	18.1733	0.3481
25.7167	18.2333	0.3486
25.7874	17.6600	0.3431
25.8580	17.7400	0.3439
25.9287	17.9733	0.3462
25.9994	17.6733	0.3433
26.0700	17.8733	0.3452
26.1407	17.4467	0.3410
26.2114	17.3733	0.3403
26.2820	17.4200	0.3408
26.3527	17.2400	0.3390
26.4233	17.3333	0.3399
26.4940	17.4067	0.3407
26.5647	17.6467	0.3430
26.6353	16.9267	0.3359
26.7060	17.5267	0.3418
26.7767	17.4867	0.3414
26.8473	17.6600	0.3431
26.9180	16.3667	0.3303
26.9887	17.2333	0.3390
27.0593	17.0333	0.3370
27.1300	16.9600	0.3363
27.2007	16.1267	0.3279
27.2713	17.2600	0.3392
27.3420	16.8733	0.3354
27.4126	16.7733	0.3344
27.4833	16.7200	0.3339
27.5540	16.4200	0.3309
27.6246	16.9400	0.3361
27.6953	16.3267	0.3299
27.7660	16.3800	0.3305
27.8366	16.7800	0.3345
27.9073	16.3733	0.3304
27.9780	16.2400	0.3290
28.0486	16.4000	0.3307
28.1193	16.3400	0.3301
28.1899	16.6000	0.3327
28.2606	16.5000	0.3317
28.3313	16.3067	0.3297
28.4019	16.7600	0.3343
28.4726	16.7400	0.3341
28.5433	15.8467	0.3250
28.6139	16.2400	0.3290
28.6846	15.8533	0.3251
28.7553	15.6333	0.3228
28.8259	16.2333	0.3290
28.8966	16.1267	0.3279
28.9672	16.2867	0.3295
29.0379	15.8133	0.3247
29.1086	15.5733	0.3222
29.1792	15.7067	0.3236
29.2499	16.1467	0.3281
29.3206	15.6000	0.3225
29.3912	16.4400	0.3311
29.4619	15.9067	0.3256
29.5326	15.2467	0.3188
29.6032	15.2200	0.3185
29.6739	15.1533	0.3178
29.7446	14.7200	0.3133
29.8152	15.1133	0.3174
29.8859	15.2733	0.3191
29.9565	15.0467	0.3167
30.0272	15.2667	0.3190
30.0979	15.5800	0.3223
30.1685	14.9200	0.3154
30.2392	15.8000	0.3246
30.3099	15.2733	0.3191
30.3805	15.2733	0.3191
30.4512	15.1800	0.3181
30.5219	15.0533	0.3168
30.5925	14.5200	0.3111
30.6632	14.5267	0.3112
30.7338	14.5667	0.3116
30.8045	14.7667	0.3138
30.8752	14.8200	0.3143
30.9458	14.5000	0.3109
31.0165	14.4867	0.3108
31.0872	14.2667	0.3084
31.1578	15.0200	0.3164
31.2285	14.6333	0.3123
31.2992	14.4600	0.3105
31.3698	14.3467	0.3093
31.4405	14.4467	0.3103
31.5112	14.5800	0.3118
31.5818	14.0200	0.3057
31.6525	14.2733	0.3085
31.7231	14.0933	0.3065
31.7938	14.6333	0.3123
31.8645	14.7400	0.3135
31.9351	14.4133	0.3100
32.0058	14.4333	0.3102
32.0765	14.1933	0.3076
32.1471	13.8400	0.3038
32.2178	13.7400	0.3027
32.2885	13.9600	0.3051
32.3591	14.0667	0.3062
32.4298	13.8800	0.3042
32.5004	13.9000	0.3044
32.5711	13.4400	0.2993
32.6418	14.3000	0.3088
32.7124	13.9933	0.3054
32.7831	13.8533	0.3039
32.8538	13.4267	0.2992
32.9244	13.5933	0.3010
32.9951	12.8000	0.2921
33.0658	13.5800	0.3009
33.1364	14.1733	0.3074
33.2071	13.4533	0.2995
33.2777	13.5800	0.3009
33.3484	13.1933	0.2966
33.4191	13.0867	0.2954
33.4897	13.2333	0.2970
33.5604	12.6400	0.2903
33.6311	13.0200	0.2946
33.7017	13.1133	0.2957
33.7724	12.7733	0.2918
33.8431	13.2067	0.2967
33.9137	13.0333	0.2948
33.9844	13.5400	0.3004
34.0551	13.3733	0.2986
34.1257	13.0000	0.2944
34.1964	13.1867	0.2965
34.2670	13.1800	0.2964
34.3377	12.1133	0.2842
34.4084	12.6200	0.2901
34.4790	12.5400	0.2891
34.5497	12.9333	0.2936
34.6204	12.5267	0.2890
34.6910	13.0467	0.2949
34.7617	12.8333	0.2925
34.8324	12.3533	0.2870
34.9030	12.7133	0.2911
34.9737	12.8800	0.2930
35.0443	13.0733	0.2952
35.1150	13.0333	0.2948
35.1857	12.6000	0.2898
35.2563	12.8600	0.2928
35.3270	12.5467	0.2892
35.3977	12.9067	0.2933
35.4683	12.6667	0.2906
35.5390	12.3733	0.2872
35.6097	13.0467	0.2949
35.6803	12.6733	0.2907
35.7510	13.1000	0.2955
35.8216	12.5800	0.2896
35.8923	12.6667	0.2906
35.9630	12.1800	0.2850
36.0336	13.1667	0.2963
36.1043	11.8533	0.2811
36.1750	13.1400	0.2960
36.2456	12.1533	0.2846
36.3163	12.6600	0.2905
36.3870	12.1267	0.2843
36.4576	12.1000	0.2840
36.5283	11.8467	0.2810
36.5990	11.8067	0.2806
36.6696	12.2333	0.2856
36.7403	11.9733	0.2825
36.8109	11.9800	0.2826
36.8816	12.4000	0.2875
36.9523	12.8133	0.2923
37.0229	12.8000	0.2921
37.0936	12.1467	0.2846
37.1643	12.4667	0.2883
37.2349	12.7400	0.2914
37.3056	11.5467	0.2774
37.3763	11.6800	0.2790
37.4469	12.1733	0.2849
37.5176	11.8600	0.2812
37.5882	12.0800	0.2838
37.6589	11.9067	0.2817
37.7296	12.1733	0.2849
37.8002	12.1133	0.2842
37.8709	12.4600	0.2882
37.9416	12.9800	0.2942
38.0122	12.6800	0.2907
38.0829	13.0667	0.2951
38.1536	13.8733	0.3041
38.2242	13.8133	0.3035
38.2949	14.2733	0.3085
38.3655	14.4533	0.3104
38.4362	15.7333	0.3239
38.5069	15.7933	0.3245
38.5775	16.9133	0.3358
38.6482	17.8400	0.3449
38.7189	18.7733	0.3538
38.7895	20.2800	0.3677
38.8602	21.5133	0.3787
38.9309	23.9867	0.3999
39.0015	27.1533	0.4255
39.0722	31.3133	0.4569
39.1429	39.6133	0.5139
39.2135	50.5733	0.5807
39.2842	67.4467	0.6706
39.3548	95.2600	0.7969
39.4255	131.1600	0.9351
39.4962	180.6533	1.0974
39.5668	228.5200	1.2343
39.6375	267.9133	1.3364
39.7082	287.4667	1.3844
39.7788	265.3667	1.3301
39.8495	227.8733	1.2325
39.9202	173.7467	1.0762
39.9908	123.1600	0.9061
40.0615	86.9067	0.7612
40.1321	62.2800	0.6444
40.2028	45.9667	0.5536
40.2735	36.3067	0.4920
40.3441	29.6333	0.4445
40.4148	24.9467	0.4078
40.4855	21.6800	0.3802
40.5561	19.9533	0.3647
40.6268	18.0467	0.3469
40.6975	16.8600	0.3353
40.7681	16.1600	0.3282
40.8388	15.4333	0.3208
40.9094	14.9267	0.3155
40.9801	14.4200	0.3101
41.0508	13.8267	0.3036
41.1214	13.2933	0.2977
41.1921	12.7933	0.2920
41.2628	12.6333	0.2902
41.3334	12.1067	0.2841
41.4041	11.9933	0.2828
41.4748	11.9733	0.2825
41.5454	11.6067	0.2782
41.6161	11.2467	0.2738
41.6868	11.7333	0.2797
41.7574	11.1800	0.2730
41.8281	11.7067	0.2794
41.8987	10.9867	0.2706
41.9694	10.7533	0.2677
42.0401	11.4933	0.2768
42.1107	10.9267	0.2699
42.1814	10.9600	0.2703
42.2521	11.2267	0.2736
42.3227	11.1667	0.2728
42.3934	10.5600	0.2653
42.4641	10.8200	0.2686
42.5347	10.4600	0.2641
42.6054	10.9533	0.2702
42.6760	10.1800	0.2605
42.7467	10.2467	0.2614
42.8174	10.7933	0.2682
42.8880	10.2533	0.2614
42.9587	11.0000	0.2708
43.0294	10.5000	0.2646
43.1000	11.2667	0.2741
43.1707	10.3600	0.2628
43.2414	10.3400	0.2626
43.3120	10.0600	0.2590
43.3827	10.2733	0.2617
43.4534	9.7867	0.2554
43.5240	9.9467	0.2575
43.5947	9.7267	0.2546
43.6653	9.1067	0.2464
43.7360	9.7067	0.2544
43.8067	10.0333	0.2586
43.8773	9.3867	0.2502
43.9480	8.8333	0.2427
44.0187	9.7267	0.2546
44.0893	9.5267	0.2520
44.1600	9.6933	0.2542
44.2307	9.7600	0.2551
44.3013	9.5533	0.2524
44.3720	9.1867	0.2475
44.4426	9.1400	0.2468
44.5133	9.3067	0.2491
44.5840	9.4867	0.2515
44.6546	9.3000	0.2490
44.7253	8.7867	0.2420
44.7960	9.5867	0.2528
44.8666	9.0333	0.2454
44.9373	9.2333	0.2481
45.0080	8.9400	0.2441
45.0786	8.7133	0.2410
45.1493	8.9933	0.2449
45.2199	8.7133	0.2410
45.2906	8.9667	0.2445
45.3613	8.8000	0.2422
45.4319	9.1600	0.2471
45.5026	9.2667	0.2486
45.5733	9.1467	0.2469
45.6439	8.7800	0.2419
45.7146	8.5000	0.2380
45.7853	8.7200	0.2411
45.8559	8.7533	0.2416
45.9266	8.7133	0.2410
45.9973	8.9933	0.2449
46.0679	8.9667	0.2445
46.1386	8.4867	0.2379
46.2092	8.4067	0.2367
46.2799	8.6400	0.2400
46.3506	8.6933	0.2407
46.4212	8.6133	0.2396
46.4919	8.6000	0.2394
46.5626	8.7600	0.2417
46.6332	8.5800	0.2392
46.7039	8.4733	0.2377
46.7746	8.4867	0.2379
46.8452	8.5200	0.2383
46.9159	8.1267	0.2328
46.9865	8.3800	0.2364
47.0572	8.7000	0.2408
47.1279	8.5600	0.2389
47.1985	8.4400	0.2372
47.2692	8.0133	0.2311
47.3399	8.2733	0.2349
47.4105	8.5667	0.2390
47.4812	8.6400	0.2400
47.5519	8.1933	0.2337
47.6225	7.8267	0.2284
47.6932	7.8333	0.2285
47.7638	8.0800	0.2321
47.8345	8.1400	0.2330
47.9052	8.1067	0.2325
47.9758	7.4933	0.2235
48.0465	8.2400	0.2344
48.1172	8.2667	0.2348
48.1878	8.3800	0.2364
48.2585	7.9600	0.2304
48.3292	8.1200	0.2327
48.3998	8.2667	0.2348
48.4705	8.0333	0.2314
48.5412	8.0733	0.2320
48.6118	7.9200	0.2298
48.6825	8.1267	0.2328
48.7531	7.9067	0.2296
48.8238	8.0733	0.2320
48.8945	8.0133	0.2311
48.9651	7.6600	0.2260
49.0358	8.1933	0.2337
49.1065	7.8267	0.2284
49.1771	7.4933	0.2235
49.2478	7.7400	0.2272
49.3185	7.8533	0.2288
49.3891	7.7067	0.2267
49.4598	8.3000	0.2352
49.5304	7.8467	0.2287
49.6011	7.6867	0.2264
49.6718	8.0200	0.2312
49.7424	7.7533	0.2274
49.8131	7.7400	0.2272
49.8838	7.3400	0.2212
49.9544	7.7667	0.2275
50.0251	8.0333	0.2314
50.0958	7.5400	0.2242
50.1664	7.4600	0.2230
50.2371	7.8000	0.2280
50.3077	7.3067	0.2207
50.3784	7.2933	0.2205
50.4491	7.8600	0.2289
50.5197	7.4867	0.2234
50.5904	7.5000	0.2236
50.6611	7.3333	0.2211
50.7317	7.7533	0.2274
50.8024	7.2067	0.2192
50.8731	7.5133	0.2238
50.9437	7.5800	0.2248
51.0144	7.8533	0.2288
51.0851	7.2467	0.2198
51.1557	8.0533	0.2317
51.2264	7.7200	0.2269
51.2970	7.6133	0.2253
51.3677	7.6000	0.2251
51.4384	7.2867	0.2204
51.5090	7.7467	0.2273
51.5797	7.5933	0.2250
51.6504	7.6333	0.2256
51.7210	7.1600	0.2185
51.7917	7.3400	0.2212
51.8624	7.2933	0.2205
51.9330	7.5667	0.2246
52.0037	7.6333	0.2256
52.0743	7.2267	0.2195
52.1450	7.5800	0.2248
52.2157	7.4000	0.2221
52.2863	7.0667	0.2171
52.3570	7.3667	0.2216
52.4277	7.0267	0.2164
52.4983	7.1933	0.2190
52.5690	7.4333	0.2226
52.6397	7.1733	0.2187
52.7103	6.8533	0.2137
52.7810	6.9667	0.2155
52.8516	7.2933	0.2205
52.9223	7.3933	0.2220
52.9930	7.5200	0.2239
53.0636	7.0067	0.2161
53.1343	7.2667	0.2201
53.2050	7.3067	0.2207
53.2756	7.0267	0.2164
53.3463	7.0067	0.2161
53.4170	7.6133	0.2253
53.4876	6.9067	0.2146
53.5583	7.1933	0.2190
53.6290	7.1200	0.2179
53.6996	7.1933	0.2190
53.7703	7.0267	0.2164
53.8409	7.1467	0.2183
53.9116	6.9733	0.2156
53.9823	6.8267	0.2133
54.0529	7.0867	0.2174
54.1236	7.4200	0.2224
54.1943	6.7800	0.2126
54.2649	7.0133	0.2162
54.3356	7.3267	0.2210
54.4063	7.0600	0.2169
54.4769	7.1067	0.2177
54.5476	6.7200	0.2117
54.6182	7.1467	0.2183
54.6889	7.5067	0.2237
54.7596	7.2200	0.2194
54.8302	7.1000	0.2176
54.9009	7.6200	0.2254
54.9716	7.3000	0.2206
55.0422	7.5933	0.2250
55.1129	7.1867	0.2189
55.1836	7.8533	0.2288
55.2542	7.5267	0.2240
55.3249	8.0467	0.2316
55.3956	8.2467	0.2345
55.4662	8.1067	0.2325
55.5369	7.8667	0.2290
55.6075	8.2200	0.2341
55.6782	7.8800	0.2292
55.7489	7.8400	0.2286
55.8195	7.8933	0.2294
55.8902	8.6333	0.2399
55.9609	9.0467	0.2456
56.0315	9.1867	0.2475
56.1022	9.3133	0.2492
56.1729	9.6867	0.2541
56.2435	10.3733	0.2630
56.3142	9.9733	0.2579
56.3848	11.4133	0.2758
56.4555	11.9467	0.2822
56.5262	13.3667	0.2985
56.5968	14.9600	0.3158
56.6675	17.5667	0.3422
56.7382	20.2133	0.3671
56.8088	25.1533	0.4095
56.8795	29.3067	0.4420
56.9502	35.4267	0.4860
57.0208	41.6533	0.5270
57.0915	50.2867	0.5790
57.1621	56.9667	0.6163
57.2328	64.1200	0.6538
57.3035	68.9800	0.6781
57.3741	72.4667	0.6951
57.4448	69.9533	0.6829
57.5155	67.7200	0.6719
57.5861	61.1733	0.6386
57.6568	53.4200	0.5968
57.7275	44.1867	0.5428
57.7981	38.1333	0.5042
57.8688	29.6333	0.4445
57.9395	23.3867	0.3949
58.0101	20.6533	0.3711
58.0808	16.7667	0.3343
58.1514	14.2800	0.3085
58.2221	12.8000	0.2921
58.2928	11.5333	0.2773
58.3634	10.8533	0.2690
58.4341	10.1600	0.2603
58.5048	9.2067	0.2477
58.5754	9.0333	0.2454
58.6461	8.6800	0.2406
58.7168	8.6400	0.2400
58.7874	8.3133	0.2354
58.8581	7.5000	0.2236
58.9287	8.0533	0.2317
58.9994	7.8000	0.2280
59.0701	7.7133	0.2268
59.1407	7.5000	0.2236
59.2114	7.5267	0.2240
59.2821	7.3600	0.2215
59.3527	7.3533	0.2214
59.4234	7.4133	0.2223
59.4941	7.0467	0.2167
59.5647	7.4733	0.2232
59.6354	6.6733	0.2109
59.7060	6.9600	0.2154
59.7767	6.8467	0.2136
59.8474	6.8467	0.2136
59.9180	7.1267	0.2180
59.9887	6.8467	0.2136
60.0594	6.3667	0.2060
60.1300	6.7600	0.2123
60.2007	6.7467	0.2121
60.2714	6.8000	0.2129
60.3420	6.5733	0.2093
60.4127	6.3533	0.2058
60.4834	7.1467	0.2183
60.5540	6.7467	0.2121
60.6247	6.7333	0.2119
60.6953	6.5667	0.2092
60.7660	6.6333	0.2103
60.8367	6.5867	0.2095
60.9073	6.4333	0.2071
60.9780	6.9200	0.2148
61.0487	6.1400	0.2023
61.1193	6.6400	0.2104
61.1900	6.4400	0.2072
61.2607	6.5867	0.2095
61.3313	6.3600	0.2059
61.4020	6.4600	0.2075
61.4726	6.1133	0.2019
61.5433	6.5533	0.2090
61.6140	5.9667	0.1994
61.6846	6.6400	0.2104
61.7553	6.6400	0.2104
61.8260	5.9933	0.1999
61.8966	6.4933	0.2081
61.9673	6.4267	0.2070
62.0380	6.2933	0.2048
62.1086	6.3333	0.2055
62.1793	6.2667	0.2044
62.2499	6.5600	0.2091
62.3206	6.5000	0.2082
62.3913	6.6200	0.2101
62.4619	6.3000	0.2049
62.5326	6.3133	0.2052
62.6033	6.6267	0.2102
62.6739	6.4000	0.2066
62.7446	6.5067	0.2083
62.8153	6.6933	0.2112
62.8859	5.9333	0.1989
62.9566	6.2000	0.2033
63.0273	6.3733	0.2061
63.0979	6.4867	0.2080
63.1686	6.3467	0.2057
63.2392	6.3400	0.2056
63.3099	6.0600	0.2010
63.3806	6.1333	0.2022
63.4512	6.4267	0.2070
63.5219	6.1133	0.2019
63.5926	6.1133	0.2019
63.6632	6.0067	0.2001
63.7339	6.4000	0.2066
63.8046	6.2267	0.2037
63.8752	6.3600	0.2059
63.9459	6.4733	0.2077
64.0165	6.4400	0.2072
64.0872	6.1933	0.2032
64.1579	6.1267	0.2021
64.2285	6.2867	0.2047
64.2992	6.4133	0.2068
64.3699	6.3667	0.2060
64.4405	6.6067	0.2099
64.5112	6.0133	0.2002
64.5819	6.5000	0.2082
64.6525	6.0000	0.2000
64.7232	6.2467	0.2041
64.7938	6.0733	0.2012
64.8645	5.9733	0.1996
64.9352	6.3267	0.2054
65.0058	6.3267	0.2054
65.0765	6.2200	0.2036
65.1472	6.0000	0.2000
65.2178	6.0533	0.2009
65.2885	6.1667	0.2028
65.3592	5.9600	0.1993
65.4298	5.9600	0.1993
65.5005	6.0333	0.2006
65.5712	6.2400	0.2040
65.6418	6.1600	0.2026
65.7125	5.9600	0.1993
65.7831	6.3267	0.2054
65.8538	5.8067	0.1968
65.9245	5.9067	0.1984
65.9951	6.2867	0.2047
66.0658	5.9333	0.1989
66.1365	5.7933	0.1965
66.2071	5.6667	0.1944
66.2778	6.0667	0.2011
66.3485	6.3333	0.2055
66.4191	6.2400	0.2040
66.4898	6.1733	0.2029
66.5604	5.9400	0.1990
66.6311	6.0867	0.2014
66.7018	6.3400	0.2056
66.7724	6.1467	0.2024
66.8431	6.0467	0.2008
66.9138	6.0133	0.2002
66.9844	5.9200	0.1987
67.0551	5.9333	0.1989
67.1258	5.6667	0.1944
67.1964	6.0800	0.2013
67.2671	6.4067	0.2067
67.3378	5.7067	0.1950
67.4084	5.8867	0.1981
67.4791	6.5467	0.2089
67.5497	5.9800	0.1997
67.6204	5.9533	0.1992
67.6911	6.1667	0.2028
67.7617	6.1400	0.2023
67.8324	6.1533	0.2025
67.9031	6.0333	0.2006
67.9737	5.7733	0.1962
68.0444	6.1067	0.2018
68.1151	6.0067	0.2001
68.1857	6.1400	0.2023
68.2564	6.1067	0.2018
68.3270	6.2867	0.2047
68.3977	6.2333	0.2039
68.4684	5.4867	0.1913
68.5390	6.1200	0.2020
68.6097	6.2000	0.2033
68.6804	6.2267	0.2037
68.7510	6.5467	0.2089
68.8217	5.9467	0.1991
68.8924	6.2600	0.2043
68.9630	6.2133	0.2035
69.0337	6.2467	0.2041
69.1043	6.6800	0.2110
69.1750	6.3000	0.2049
69.2457	6.3467	0.2057
69.3163	6.6933	0.2112
69.3870	6.4133	0.2068
69.4577	6.5733	0.2093
69.5283	6.7600	0.2123
69.5990	6.5867	0.2095
69.6697	6.9067	0.2146
69.7403	6.7933	0.2128
69.8110	7.3600	0.2215
69.8817	6.8467	0.2136
69.9523	6.9400	0.2151
70.0230	7.0333	0.2165
70.0936	7.3733	0.2217
70.1643	7.5400	0.2242
70.2350	7.2000	0.2191
70.3056	7.4467	0.2228
70.3763	7.8067	0.2281
70.4470	7.9000	0.2295
70.5176	7.9333	0.2300
70.5883	8.5333	0.2385
70.6590	8.8200	0.2425
70.7296	9.0733	0.2459
70.8003	9.5133	0.2518
70.8709	10.6000	0.2658
70.9416	10.9067	0.2696
71.0123	12.6400	0.2903
71.0829	14.2467	0.3082
71.1536	16.0333	0.3269
71.2243	18.0600	0.3470
71.2949	20.9467	0.3737
71.3656	25.5467	0.4127
71.4363	29.1800	0.4411
71.5069	33.8000	0.4747
71.5776	40.2533	0.5180
71.6482	47.7200	0.5640
71.7189	53.2200	0.5957
71.7896	60.1333	0.6332
71.8602	65.0267	0.6584
71.9309	69.5267	0.6808
72.0016	72.6333	0.6959
72.0722	73.0800	0.6980
72.1429	71.9333	0.6925
72.2136	66.7400	0.6670
72.2842	62.3867	0.6449
72.3549	55.1533	0.6064
72.4256	48.5867	0.5691
72.4962	41.7267	0.5274
72.5669	34.1667	0.4773
72.6375	29.0000	0.4397
72.7082	22.6400	0.3885
72.7789	19.5667	0.3612
72.8495	16.3400	0.3301
72.9202	14.1400	0.3070
72.9909	12.1333	0.2844
73.0615	10.7200	0.2673
73.1322	10.3800	0.2631
73.2029	9.6000	0.2530
73.2735	9.4133	0.2505
73.3442	8.5133	0.2382
73.4148	7.8533	0.2288
73.4855	7.9800	0.2307
73.5562	7.7533	0.2274
73.6268	7.5867	0.2249
73.6975	7.6533	0.2259
73.7682	7.1400	0.2182
73.8388	7.0667	0.2171
73.9095	6.7267	0.2118
73.9802	6.7333	0.2119
74.0508	6.6067	0.2099
74.1215	6.5267	0.2086
74.1921	6.9467	0.2152
74.2628	6.6000	0.2098
74.3335	6.3600	0.2059
74.4041	6.2467	0.2041
74.4748	6.7933	0.2128
74.5455	6.1733	0.2029
74.6161	6.1133	0.2019
74.6868	6.4267	0.2070
74.7575	6.3533	0.2058
74.8281	6.3333	0.2055
74.8988	6.1667	0.2028
74.9695	6.3067	0.2050
75.0401	6.3000	0.2049
75.1108	6.0400	0.2007
75.1814	5.8333	0.1972
75.2521	6.2267	0.2037
75.3228	5.7467	0.1957
75.3934	6.1800	0.2030
75.4641	5.5467	0.1923
75.5348	5.9600	0.1993
75.6054	5.8067	0.1968
75.6761	5.8133	0.1969
75.7468	5.7400	0.1956
75.8174	5.8400	0.1973
75.8881	5.6467	0.1940
75.9587	5.8933	0.1982
76.0294	5.7200	0.1953
76.1001	5.4133	0.1900
76.1707	5.8600	0.1977
76.2414	5.7400	0.1956
76.3121	5.5800	0.1929
76.3827	5.3133	0.1882
76.4534	5.4533	0.1907
76.5241	5.8400	0.1973
76.5947	5.8000	0.1966
76.6654	5.4867	0.1913
76.7360	5.6733	0.1945
76.8067	5.7800	0.1963
76.8774	6.0667	0.2011
76.9480	5.6333	0.1938
77.0187	5.4933	0.1914
77.0894	5.5733	0.1928
77.1600	5.4400	0.1904
77.2307	5.9600	0.1993
77.3014	5.4667	0.1909
77.3720	5.5800	0.1929
77.4427	5.8733	0.1979
77.5134	5.4267	0.1902
77.5840	5.4800	0.1911
77.6547	5.8000	0.1966
77.7253	5.7333	0.1955
77.7960	5.4467	0.1906
77.8667	5.7400	0.1956
77.9373	5.3533	0.1889
78.0080	5.3867	0.1895
78.0787	5.6200	0.1936
78.1493	5.4800	0.1911
78.2200	5.3600	0.1890
78.2907	5.6467	0.1940
78.3613	5.5067	0.1916
78.4320	5.7400	0.1956
78.5026	5.4867	0.1913
78.5733	5.8933	0.1982
78.6440	5.7733	0.1962
78.7146	5.6067	0.1933
78.7853	5.3067	0.1881
78.8560	5.5200	0.1918
78.9266	5.5333	0.1921
78.9973	5.6267	0.1937
79.0680	5.6867	0.1947
79.1386	5.5933	0.1931
79.2093	5.6867	0.1947
79.2800	5.5867	0.1930
79.3506	5.7733	0.1962
79.4213	5.5733	0.1928
79.4919	5.4667	0.1909
79.5626	5.3333	0.1886
79.6333	5.2867	0.1877
79.7039	5.2600	0.1873
79.7746	5.1333	0.1850
79.8453	5.4533	0.1907
79.9159	5.6200	0.1936
79.9866	5.3467	0.1888
80.0573	4.8800	0.1804
80.1279	5.1667	0.1856
80.1986	5.2933	0.1879
80.2692	5.9333	0.1989
80.3399	5.1133	0.1846
80.4106	4.9933	0.1825
80.4812	4.9733	0.1821
80.5519	5.2867	0.1877
80.6226	5.5333	0.1921
80.6932	5.5133	0.1917
80.7639	5.1200	0.1848
80.8346	5.3733	0.1893
80.9052	5.0400	0.1833
80.9759	5.3533	0.1889
81.0465	5.5000	0.1915
81.1172	5.3800	0.1894
81.1879	5.6200	0.1936
81.2585	5.1200	0.1848
81.3292	4.8200	0.1793
81.3999	5.2533	0.1871
81.4705	5.1333	0.1850
81.5412	5.5067	0.1916
81.6119	5.1600	0.1855
81.6825	5.2267	0.1867
81.7532	5.3867	0.1895
81.8239	5.5000	0.1915
81.8945	5.0067	0.1827
81.9652	5.3933	0.1896
82.0358	5.5600	0.1925
82.1065	5.2867	0.1877
82.1772	5.3467	0.1888
82.2478	5.2600	0.1873
82.3185	5.5600	0.1925
82.3892	5.4733	0.1910
82.4598	5.2867	0.1877
82.5305	5.5200	0.1918
82.6012	5.5333	0.1921
82.6718	5.2667	0.1874
82.7425	5.2667	0.1874
82.8131	5.5133	0.1917
82.8838	5.6133	0.1934
82.9545	5.4400	0.1904
83.0251	5.5333	0.1921
83.0958	5.3800	0.1894
83.1665	5.4267	0.1902
83.2371	5.6533	0.1941
83.3078	5.7333	0.1955
83.3785	5.5400	0.1922
83.4491	5.6667	0.1944
83.5198	5.9000	0.1983
83.5904	5.5867	0.1930
83.6611	5.6200	0.1936
83.7318	5.3333	0.1886
83.8024	5.7133	0.1952
83.8731	5.8600	0.1977
83.9438	5.9467	0.1991
84.0144	6.0200	0.2003
84.0851	6.2467	0.2041
84.1558	6.0267	0.2004
84.2264	6.3200	0.2053
84.2971	6.7867	0.2127
84.3678	6.9800	0.2157
84.4384	7.6333	0.2256
84.5091	8.1067	0.2325
84.5797	8.3533	0.2360
84.6504	8.3333	0.2357
84.7211	9.5267	0.2520
84.7917	10.4733	0.2642
84.8624	10.9133	0.2697
84.9331	11.7733	0.2802
85.0037	13.6200	0.3013
85.0744	13.9933	0.3054
85.1451	14.8933	0.3151
85.2157	16.2333	0.3290
85.2864	17.8333	0.3448
85.3570	18.7333	0.3534
85.4277	19.0933	0.3568
85.4984	19.5133	0.3607
85.5690	19.2133	0.3579
85.6397	19.0800	0.3567
85.7104	18.1533	0.3479
85.7810	18.4067	0.3503
85.8517	16.6800	0.3335
85.9224	15.2800	0.3192
85.9930	14.7533	0.3136
86.0637	12.9067	0.2933
86.1343	12.0467	0.2834
86.2050	10.8200	0.2686
86.2757	9.8733	0.2566
86.3463	8.9667	0.2445
86.4170	8.0800	0.2321
86.4877	7.5267	0.2240
86.5583	7.1800	0.2188
86.6290	6.3200	0.2053
86.6997	6.0067	0.2001
86.7703	6.3000	0.2049
86.8410	6.1733	0.2029
86.9117	5.8867	0.1981
86.9823	5.7800	0.1963
87.0530	5.9467	0.1991
87.1236	5.6067	0.1933
87.1943	5.7467	0.1957
87.2650	5.4667	0.1909
87.3356	5.5333	0.1921
87.4063	5.2933	0.1879
87.4770	5.4933	0.1914
87.5476	5.3933	0.1896
87.6183	5.7200	0.1953
87.6890	4.9667	0.1820
87.7596	5.2200	0.1865
87.8303	5.6400	0.1939
87.9009	5.4467	0.1906
87.9716	5.4800	0.1911
88.0423	5.2067	0.1863
88.1129	5.5667	0.1926
88.1836	5.1467	0.1852
88.2543	5.2867	0.1877
88.3249	5.1600	0.1855
88.3956	5.1333	0.1850
88.4663	5.0333	0.1832
88.5369	4.8133	0.1791
88.6076	5.4067	0.1899
88.6782	5.0933	0.1843
88.7489	5.0667	0.1838
88.8196	5.1467	0.1852
88.8902	5.1600	0.1855
88.9609	5.2067	0.1863
89.0316	5.0933	0.1843
89.1022	5.0467	0.1834
89.1729	5.1267	0.1849
89.2436	5.2267	0.1867
89.3142	4.7067	0.1771
89.3849	5.0933	0.1843
89.4556	4.9133	0.1810
89.5262	5.2067	0.1863
89.5969	5.1133	0.1846
89.6675	4.9600	0.1818
89.7382	4.9200	0.1811
89.8089	5.2667	0.1874
89.8795	5.2933	0.1879
89.9502	5.3267	0.1884
90.0209	5.0200	0.1829
90.0915	5.2267	0.1867
90.1622	4.9867	0.1823
90.2329	5.1600	0.1855
90.3035	5.4000	0.1897
90.3742	4.9467	0.1816
90.4448	5.1000	0.1844
90.5155	5.1200	0.1848
90.5862	5.3933	0.1896
90.6568	5.1067	0.1845
90.7275	5.0667	0.1838
90.7982	4.8133	0.1791
90.8688	5.0067	0.1827
90.9395	5.1600	0.1855
91.0102	4.9733	0.1821
91.0808	5.1133	0.1846
91.1515	5.1933	0.1861
91.2222	5.5800	0.1929
91.2928	5.1000	0.1844
91.3635	5.0600	0.1837
91.4341	5.2800	0.1876
91.5048	5.1533	0.1854
91.5755	5.1933	0.1861
91.6461	5.3400	0.1887
91.7168	5.0600	0.1837
91.7875	4.9133	0.1810
91.8581	5.1667	0.1856
91.9288	5.0733	0.1839
91.9995	5.2267	0.1867
92.0701	5.0133	0.1828
92.1408	5.1800	0.1858
92.2114	4.9867	0.1823
92.2821	4.9533	0.1817
92.3528	5.0467	0.1834
92.4234	4.9667	0.1820
92.4941	4.8933	0.1806
92.5648	5.2000	0.1862
92.6354	5.6067	0.1933
92.7061	5.0000	0.1826
92.7768	5.3867	0.1895
92.8474	5.2200	0.1865
92.9181	5.1067	0.1845
92.9887	4.8333	0.1795
93.0594	4.7133	0.1773
93.1301	5.1333	0.1850
93.2007	5.3600	0.1890
93.2714	5.3600	0.1890
93.3421	4.9400	0.1815
93.4127	5.1133	0.1846
93.4834	5.3000	0.1880
93.5541	5.4133	0.1900
93.6247	5.0067	0.1827
93.6954	4.9867	0.1823
93.7661	5.6200	0.1936
93.8367	5.1867	0.1860
93.9074	5.2467	0.1870
93.9780	5.0867	0.1841
94.0487	5.4333	0.1903
94.1194	5.5000	0.1915
94.1900	5.3733	0.1893
94.2607	5.5600	0.1925
94.3314	5.2133	0.1864
94.4020	5.3067	0.1881
94.4727	5.6533	0.1941
94.5434	5.4467	0.1906
94.6140	5.7800	0.1963
94.6847	5.6533	0.1941
94.7553	5.5133	0.1917
94.8260	5.5667	0.1926
94.8967	5.1800	0.1858
94.9673	5.8667	0.1978
95.0380	5.4867	0.1913
95.1087	5.5733	0.1928
95.1793	5.5000	0.1915
95.2500	5.5133	0.1917
95.3207	5.4867	0.1913
95.3913	5.9933	0.1999
95.4620	5.6667	0.1944
95.5326	5.5067	0.1916
95.6033	5.3800	0.1894
95.6740	5.6133	0.1934
95.7446	5.9267	0.1988
95.8153	5.4133	0.1900
95.8860	5.6733	0.1945
95.9566	5.9667	0.1994
96.0273	5.6600	0.1943
96.0980	5.9600	0.1993
96.1686	6.1533	0.2025
96.2393	6.3000	0.2049
96.3100	6.0533	0.2009
96.3806	6.2333	0.2039
96.4513	6.4400	0.2072
96.5219	6.3800	0.2062
96.5926	6.1467	0.2024
96.6633	6.5133	0.2084
96.7339	6.4733	0.2077
96.8046	6.5200	0.2085
96.8753	6.7667	0.2124
96.9459	7.2067	0.2192
97.0166	6.7933	0.2128
97.0873	7.3600	0.2215
97.1579	7.6800	0.2263
97.2286	7.5600	0.2245
97.2992	7.6400	0.2257
97.3699	8.5667	0.2390
97.4406	9.1933	0.2476
97.5112	10.0667	0.2591
97.5819	10.4400	0.2638
97.6526	11.0333	0.2712
97.7232	11.2000	0.2733
97.7939	12.8333	0.2925
97.8646	13.9467	0.3049
97.9352	14.7000	0.3130
98.0059	15.0400	0.3166
98.0765	17.4533	0.3411
98.1472	17.9400	0.3458
98.2179	19.2733	0.3585
98.2885	21.2800	0.3767
98.3592	21.5533	0.3791
98.4299	23.9000	0.3992
98.5005	24.4267	0.4035
98.5712	25.9733	0.4161
98.6419	26.3333	0.4190
98.7125	25.9467	0.4159
98.7832	26.2400	0.4183
98.8539	26.6533	0.4215
98.9245	27.1400	0.4254
98.9952	25.6733	0.4137
99.0658	25.9267	0.4157
99.1365	25.1000	0.4091
99.2072	23.4267	0.3952
99.2778	22.5800	0.3880
99.3485	21.2067	0.3760
99.4192	20.4133	0.3689
99.4898	19.0933	0.3568
99.5605	16.3400	0.3301
99.6312	15.2600	0.3190
99.7018	13.9533	0.3050
99.7725	12.6067	0.2899
99.8431	11.5733	0.2778
99.9138	10.3467	0.2626
99.9845	9.6800	0.2540
100.0551	9.4133	0.2505
100.1258	8.9467	0.2442
100.1965	8.4667	0.2376
100.2671	7.8067	0.2281
100.3378	7.4867	0.2234
100.4085	6.9533	0.2153
100.4791	6.6600	0.2107
100.5498	6.5667	0.2092
100.6204	6.7533	0.2122
100.6911	6.5267	0.2086
100.7618	6.5267	0.2086
100.8324	6.2800	0.2046
100.9031	6.1733	0.2029
100.9738	6.0800	0.2013
101.0444	6.1800	0.2030
101.1151	6.4133	0.2068
101.1858	6.1400	0.2023
101.2564	6.1067	0.2018
101.3271	6.2400	0.2040
101.3978	6.1867	0.2031
101.4684	5.8400	0.1973
101.5391	5.8467	0.1974
101.6097	5.6267	0.1937
101.6804	6.0600	0.2010
101.7511	5.9133	0.1986
101.8217	5.6133	0.1934
101.8924	5.9800	0.1997
101.9631	5.8400	0.1973
102.0337	6.2600	0.2043
102.1044	5.9400	0.1990
102.1751	5.7467	0.1957
102.2457	5.7400	0.1956
102.3164	5.7267	0.1954
102.3870	5.7200	0.1953
102.4577	5.8867	0.1981
102.5284	6.0667	0.2011
102.5990	5.8667	0.1978
102.6697	5.8133	0.1969
102.7404	5.9000	0.1983
102.8110	5.6933	0.1948
102.8817	5.8067	0.1968
102.9524	5.8933	0.1982
103.0230	5.8933	0.1982
103.0937	5.5467	0.1923
103.1644	5.5467	0.1923
103.2350	5.7667	0.1961
103.3057	5.4867	0.1913
103.3763	5.4733	0.1910
103.4470	5.4333	0.1903
103.5177	6.0733	0.2012
103.5883	5.4800	0.1911
103.6590	5.8133	0.1969
103.7297	5.7600	0.1960
103.8003	5.4333	0.1903
103.8710	5.5867	0.1930
103.9417	5.6133	0.1934
104.0123	5.3933	0.1896
104.0830	5.6600	0.1943
104.1536	5.6600	0.1943
104.2243	5.7267	0.1954
104.2950	5.7400	0.1956
104.3656	5.7000	0.1949
104.4363	5.5000	0.1915
104.5070	5.4733	0.1910
104.5776	5.6467	0.1940
104.6483	5.5400	0.1922
104.7190	5.4067	0.1899
104.7896	5.8400	0.1973
104.8603	5.5600	0.1925
104.9309	5.5667	0.1926
105.0016	5.2133	0.1864
105.0723	5.5533	0.1924
105.1429	5.6933	0.1948
105.2136	5.4533	0.1907
105.2843	5.2000	0.1862
105.3549	5.4533	0.1907
105.4256	5.5267	0.1919
105.4963	5.5267	0.1919
105.5669	5.8133	0.1969
105.6376	5.5067	0.1916
105.7083	5.5933	0.1931
105.7789	5.4467	0.1906
105.8496	5.2067	0.1863
105.9202	5.6133	0.1934
105.9909	5.4667	0.1909
106.0616	5.6200	0.1936
106.1322	5.6533	0.1941
106.2029	5.8067	0.1968
106.2736	5.7467	0.1957
106.3442	5.6400	0.1939
106.4149	5.4467	0.1906
106.4856	5.7533	0.1958
106.5562	5.6133	0.1934
106.6269	5.2800	0.1876
106.6975	5.6733	0.1945
106.7682	5.7933	0.1965
106.8389	5.5133	0.1917
106.9095	5.7533	0.1958
106.9802	5.8067	0.1968
107.0509	5.5867	0.1930
107.1215	5.5600	0.1925
107.1922	5.5000	0.1915
107.2629	5.7533	0.1958
107.3335	5.9533	0.1992
107.4042	5.8467	0.1974
107.4748	6.1533	0.2025
107.5455	5.5333	0.1921
107.6162	5.6200	0.1936
107.6868	5.5733	0.1928
107.7575	5.9333	0.1989
107.8282	5.3133	0.1882
107.8988	5.9800	0.1997
107.9695	5.5733	0.1928
108.0402	5.7800	0.1963
108.1108	5.7200	0.1953
108.1815	5.3600	0.1890
108.2522	5.9133	0.1986
108.3228	5.7933	0.1965
108.3935	5.7933	0.1965
108.4641	5.5733	0.1928
108.5348	5.5333	0.1921
108.6055	5.8800	0.1980
108.6761	5.3800	0.1894
108.7468	5.5867	0.1930
108.8175	5.7667	0.1961
108.8881	5.4200	0.1901
108.9588	5.6467	0.1940
109.0295	5.7000	0.1949
109.1001	5.7933	0.1965
109.1708	5.7467	0.1957
109.2414	5.7600	0.1960
109.3121	5.9200	0.1987
109.3828	5.7533	0.1958
109.4534	5.9733	0.1996
109.5241	5.9800	0.1997
109.5948	6.2267	0.2037
109.6654	5.6200	0.1936
109.7361	5.6267	0.1937
109.8068	6.0667	0.2011
109.8774	5.9067	0.1984
109.9481	5.7800	0.1963
109.9905	6.0267	0.2004