File: XRD/Homogenization/4_WTaV_HT1800C_8h.xye
1.540593
20.0707	37.0000	4.3012
20.1555	36.5000	4.2720
20.2403	37.0000	4.3012
20.3251	34.0000	4.1231
20.4099	37.5000	4.3301
20.4946	34.0000	4.1231
20.5794	35.0000	4.1833
20.6642	36.0000	4.2426
20.7490	35.0000	4.1833
20.8338	30.5000	3.9051
20.9186	39.0000	4.4159
21.0034	34.0000	4.1231
21.0882	37.5000	4.3301
21.1730	35.0000	4.1833
21.2578	26.0000	3.6056
21.3426	32.0000	4.0000
21.4274	33.5000	4.0927
21.5122	37.0000	4.3012
21.5970	38.5000	4.3875
21.6818	31.5000	3.9686
21.7666	34.0000	4.1231
21.8514	36.5000	4.2720
21.9362	31.0000	3.9370
22.0210	34.5000	4.1533
22.1058	36.0000	4.2426
22.1906	36.0000	4.2426
22.2754	30.0000	3.8730
22.3602	33.0000	4.0620
22.4450	36.5000	4.2720
22.5298	41.5000	4.5552
22.6146	30.5000	3.9051
22.6994	25.5000	3.5707
22.7842	35.5000	4.2131
22.8690	33.0000	4.0620
22.9538	34.0000	4.1231
23.0385	26.0000	3.6056
23.1233	27.0000	3.6742
23.2081	29.0000	3.8079
23.2929	30.0000	3.8730
23.3777	21.5000	3.2787
23.4625	25.5000	3.5707
23.5473	31.0000	3.9370
23.6321	25.0000	3.5355
23.7169	28.5000	3.7749
23.8017	32.5000	4.0311
23.8865	27.5000	3.7081
23.9713	28.0000	3.7417
24.0561	25.0000	3.5355
24.1409	20.5000	3.2016
24.2257	29.5000	3.8406
24.3105	24.5000	3.5000
24.3953	24.5000	3.5000
24.4801	25.5000	3.5707
24.5649	22.5000	3.3541
24.6497	27.0000	3.6742
24.7345	25.5000	3.5707
24.8193	29.0000	3.8079
24.9041	28.0000	3.7417
24.9889	29.5000	3.8406
25.0737	26.5000	3.6401
25.1585	23.0000	3.3912
25.2433	24.5000	3.5000
25.3281	21.0000	3.2404
25.4129	25.0000	3.5355
25.4977	25.0000	3.5355
25.5824	15.5000	2.7839
25.6672	25.0000	3.5355
25.7520	19.5000	3.1225
25.8368	29.5000	3.8406
25.9216	23.0000	3.3912
26.0064	16.5000	2.8723
26.0912	28.0000	3.7417
26.1760	30.5000	3.9051
26.2608	22.5000	3.3541
26.3456	21.0000	3.2404
26.4304	17.0000	2.9155
26.5152	20.0000	3.1623
26.6000	23.5000	3.4278
26.6848	40.5000	4.5000
26.7696	24.5000	3.5000
26.8544	22.5000	3.3541
26.9392	26.0000	3.6056
27.0240	20.0000	3.1623
27.1088	21.5000	3.2787
27.1936	20.5000	3.2016
27.2784	25.0000	3.5355
27.3632	18.1818	2.8748
27.4480	20.9091	3.0829
27.5328	20.4545	3.0492
27.6176	17.7273	2.8386
27.7024	17.7273	2.8386
27.7872	17.7273	2.8386
27.8720	20.9091	3.0829
27.9568	25.0000	3.3710
28.0416	21.8182	3.1492
28.1263	21.3636	3.1162
28.2111	23.6364	3.2778
28.2959	21.8182	3.1492
28.3807	24.5455	3.3402
28.4655	28.1818	3.5791
28.5503	21.8182	3.1492
28.6351	20.4545	3.0492
28.7199	20.4545	3.0492
28.8047	24.0909	3.3091
28.8895	16.8182	2.7649
28.9743	15.9091	2.6891
29.0591	23.6364	3.2778
29.1439	20.9091	3.0829
29.2287	26.8182	3.4914
29.3135	20.0000	3.0151
29.3983	20.9091	3.0829
29.4831	16.8182	2.7649
29.5679	18.1818	2.8748
29.6527	24.0909	3.3091
29.7375	24.0909	3.3091
29.8223	22.2727	3.1818
29.9071	18.6364	2.9105
29.9919	24.0909	3.3091
30.0767	14.0909	2.5308
30.1615	25.4545	3.4015
30.2463	20.4545	3.0492
30.3311	20.4545	3.0492
30.4159	19.0909	2.9458
30.5007	15.0000	2.6112
30.5855	24.0909	3.3091
30.6702	16.8182	2.7649
30.7550	20.9091	3.0829
30.8398	16.8182	2.7649
30.9246	15.0000	2.6112
31.0094	16.8182	2.7649
31.0942	24.0909	3.3091
31.1790	15.9091	2.6891
31.2638	19.0909	2.9458
31.3486	15.9091	2.6891
31.4334	19.0909	2.9458
31.5182	20.0000	3.0151
31.6030	11.8182	2.3177
31.6878	14.5455	2.5713
31.7726	24.5455	3.3402
31.8574	24.5455	3.3402
31.9422	17.7273	2.8386
32.0270	17.2727	2.8020
32.1118	14.0909	2.5308
32.1966	17.7273	2.8386
32.2814	16.8182	2.7649
32.3662	17.2727	2.8020
32.4510	15.9091	2.6891
32.5358	20.0000	3.0151
32.6206	14.5455	2.5713
32.7054	15.0000	2.6112
32.7902	10.4545	2.1799
32.8750	16.3636	2.7273
32.9598	16.3636	2.7273
33.0446	15.9091	2.6891
33.1294	16.8182	2.7649
33.2142	16.8182	2.7649
33.2989	15.9091	2.6891
33.3837	15.4545	2.6504
33.4685	10.0000	2.1320
33.5533	16.8182	2.7649
33.6381	15.4545	2.6504
33.7229	18.1818	2.8748
33.8077	17.7273	2.8386
33.8925	15.0000	2.6112
33.9773	11.3636	2.2727
34.0621	10.4545	2.1799
34.1469	11.8182	2.3177
34.2317	11.8182	2.3177
34.3165	15.4545	2.6504
34.4013	9.5455	2.0830
34.4861	20.9091	3.0829
34.5709	15.4545	2.6504
34.6557	13.1818	2.4478
34.7405	17.2727	2.8020
34.8253	18.1818	2.8748
34.9101	19.5455	2.9807
34.9949	20.9091	3.0829
35.0797	15.4545	2.6504
35.1645	15.4545	2.6504
35.2493	12.2727	2.3619
35.3341	12.7273	2.4052
35.4189	10.9091	2.2268
35.5037	19.0909	2.9458
35.5885	14.0909	2.5308
35.6733	13.1818	2.4478
35.7581	11.8182	2.3177
35.8428	16.3636	2.7273
35.9276	16.8182	2.7649
36.0124	12.2727	2.3619
36.0972	12.6923	2.2094
36.1820	10.7692	2.0352
36.2668	15.7692	2.4627
36.3516	15.0000	2.4019
36.4364	16.1538	2.4926
36.5212	13.8462	2.3077
36.6060	17.3077	2.5801
36.6908	17.6923	2.6086
36.7756	8.8462	1.8446
36.8604	11.9231	2.1414
36.9452	10.3846	1.9985
37.0300	12.3077	2.1757
37.1148	16.1538	2.4926
37.1996	10.7692	2.0352
37.2844	11.9231	2.1414
37.3692	14.6154	2.3709
37.4540	10.7692	2.0352
37.5388	18.0769	2.6368
37.6236	14.2308	2.3395
37.7084	14.6154	2.3709
37.7932	14.2308	2.3395
37.8780	14.6154	2.3709
37.9628	11.9231	2.1414
38.0476	19.2308	2.7196
38.1324	12.3077	2.1757
38.2172	13.8462	2.3077
38.3020	13.8462	2.3077
38.3867	12.6923	2.2094
38.4715	8.8462	1.8446
38.5563	11.5385	2.1066
38.6411	8.0769	1.7625
38.7259	16.1538	2.4926
38.8107	17.6923	2.6086
38.8955	13.4615	2.2754
38.9803	10.7692	2.0352
39.0651	13.4615	2.2754
39.1499	15.3846	2.4325
39.2347	16.9231	2.5512
39.3195	14.2308	2.3395
39.4043	19.2308	2.7196
39.4891	16.1538	2.4926
39.5739	19.2308	2.7196
39.6587	20.3846	2.8000
39.7435	26.9231	3.2179
39.8283	46.1538	4.2133
39.9131	75.7692	5.3983
39.9979	115.3846	6.6617
40.0827	217.3077	9.1422
40.1675	161.9231	7.8916
40.2523	71.5385	5.2455
40.3371	41.5385	3.9970
40.4219	25.3846	3.1246
40.5067	21.9231	2.9038
40.5915	18.8462	2.6923
40.6763	15.0000	2.4019
40.7611	20.3846	2.8000
40.8459	14.6154	2.3709
40.9306	9.6154	1.9231
41.0154	9.2308	1.8842
41.1002	10.7692	2.0352
41.1850	13.0769	2.2427
41.2698	14.6154	2.3709
41.3546	12.3077	2.1757
41.4394	14.6154	2.3709
41.5242	9.6154	1.9231
41.6090	10.0000	1.9612
41.6938	11.5385	2.1066
41.7786	14.2308	2.3395
41.8634	9.2308	1.8842
41.9482	11.5385	2.1066
42.0330	10.7692	2.0352
42.1178	13.0769	2.2427
42.2026	9.2308	1.8842
42.2874	12.3077	2.1757
42.3722	8.4615	1.8040
42.4570	13.0769	2.2427
42.5418	10.0000	1.9612
42.6266	8.8462	1.8446
42.7114	8.8462	1.8446
42.7962	5.3846	1.4391
42.8810	10.7692	2.0352
42.9658	11.1538	2.0712
43.0506	8.8462	1.8446
43.1354	13.0769	2.2427
43.2202	10.0000	1.9612
43.3050	11.1538	2.0712
43.3898	12.6923	2.2094
43.4745	10.0000	1.9612
43.5593	10.3846	1.9985
43.6441	10.0000	1.9612
43.7289	7.6923	1.7201
43.8137	15.3846	2.4325
43.8985	10.7692	2.0352
43.9833	8.0769	1.7625
44.0681	8.0769	1.7625
44.1529	14.2308	2.3395
44.2377	9.2308	1.8842
44.3225	11.5385	2.1066
44.4073	8.8462	1.8446
44.4921	10.3846	1.9985
44.5769	6.9231	1.6318
44.6617	8.6667	1.6997
44.7465	9.6667	1.7951
44.8313	6.6667	1.4907
44.9161	9.0000	1.7321
45.0009	8.6667	1.6997
45.0857	8.3333	1.6667
45.1705	9.6667	1.7951
45.2553	10.0000	1.8257
45.3401	9.0000	1.7321
45.4249	9.3333	1.7638
45.5097	10.3125	1.7952
45.5945	9.0625	1.6829
45.6793	9.3750	1.7116
45.7641	9.6875	1.7399
45.8489	9.0625	1.6829
45.9337	11.5625	1.9009
46.0184	9.6875	1.7399
46.1032	6.8750	1.4658
46.1880	6.8750	1.4658
46.2728	7.5000	1.5309
46.3576	9.3750	1.7116
46.4424	8.7500	1.6536
46.5272	8.4375	1.6238
46.6120	7.5000	1.5309
46.6968	9.0625	1.6829
46.7816	9.6875	1.7399
46.8664	8.7500	1.6536
46.9512	10.6250	1.8222
47.0360	9.3750	1.7116
47.1208	7.5000	1.5309
47.2056	11.5625	1.9009
47.2904	7.1875	1.4987
47.3752	7.1875	1.4987
47.4600	9.3750	1.7116
47.5448	7.1875	1.4987
47.6296	8.4375	1.6238
47.7144	8.4375	1.6238
47.7992	9.0625	1.6829
47.8840	8.4375	1.6238
47.9688	6.2500	1.3975
48.0536	9.0625	1.6829
48.1384	7.8125	1.5625
48.2232	8.4375	1.6238
48.3080	7.5000	1.5309
48.3928	8.4375	1.6238
48.4776	9.6875	1.7399
48.5624	5.9375	1.3622
48.6471	7.8125	1.5625
48.7319	10.0000	1.7678
48.8167	5.3125	1.2885
48.9015	7.1875	1.4987
48.9863	5.9375	1.3622
49.0711	10.6250	1.8222
49.1559	8.1250	1.5934
49.2407	9.3750	1.7116
49.3255	9.3750	1.7116
49.4103	8.4375	1.6238
49.4951	6.8750	1.4658
49.5799	8.7500	1.6536
49.6647	9.3750	1.7116
49.7495	7.8125	1.5625
49.8343	10.6250	1.8222
49.9191	8.1250	1.5934
50.0039	10.3125	1.7952
50.0887	6.8750	1.4658
50.1735	8.1250	1.5934
50.2583	7.8125	1.5625
50.3431	8.7500	1.6536
50.4279	7.1875	1.4987
50.5127	10.3125	1.7952
50.5975	5.9375	1.3622
50.6823	6.5625	1.4321
50.7671	9.3750	1.7116
50.8519	5.6250	1.3258
50.9367	6.8750	1.4658
51.0215	6.8750	1.4658
51.1063	9.3750	1.7116
51.1910	8.1250	1.5934
51.2758	8.4375	1.6238
51.3606	9.3750	1.7116
51.4454	10.0000	1.7678
51.5302	6.2500	1.3975
51.6150	4.3750	1.1693
51.6998	7.1875	1.4987
51.7846	7.5000	1.5309
51.8694	5.3125	1.2885
51.9542	12.1875	1.9516
52.0390	7.8125	1.5625
52.1238	7.5000	1.5309
52.2086	7.5000	1.5309
52.2934	10.3125	1.7952
52.3782	9.3750	1.7116
52.4630	11.5625	1.9009
52.5478	14.1176	2.0377
52.6326	10.5882	1.7647
52.7174	7.0588	1.4409
52.8022	8.5294	1.5839
52.8870	7.9412	1.5283
52.9718	7.6471	1.4997
53.0566	4.4118	1.1391
53.1414	9.4118	1.6638
53.2262	7.6471	1.4997
53.3110	9.1176	1.6376
53.3958	9.4118	1.6638
53.4806	5.8333	1.2729
53.5654	8.0556	1.4959
53.6502	8.3333	1.5215
53.7349	6.1111	1.3029
53.8197	8.6111	1.5466
53.9045	7.7778	1.4699
53.9893	10.2778	1.6897
54.0741	8.6111	1.5466
54.1589	8.0556	1.4959
54.2437	8.6111	1.5466
54.3285	7.2222	1.4164
54.4133	5.5556	1.2423
54.4981	9.7222	1.6434
54.5829	9.4444	1.6197
54.6677	7.5000	1.4434
54.7525	10.8333	1.7347
54.8373	6.9444	1.3889
54.9221	6.3889	1.3322
55.0069	11.6667	1.8002
55.0917	10.2778	1.6897
55.1765	7.7778	1.4699
55.2613	6.9444	1.3889
55.3461	5.8333	1.2729
55.4309	7.5000	1.4434
55.5157	6.3889	1.3322
55.6005	6.6667	1.3608
55.6853	6.9444	1.3889
55.7701	5.5556	1.2423
55.8549	10.0000	1.6667
55.9397	10.8333	1.7347
56.0245	7.7778	1.4699
56.1093	6.1111	1.3029
56.1941	6.3889	1.3322
56.2788	9.1667	1.5957
56.3636	8.6111	1.5466
56.4484	9.7222	1.6434
56.5332	10.0000	1.6667
56.6180	9.7222	1.6434
56.7028	8.3333	1.5215
56.7876	8.3333	1.5215
56.8724	11.9444	1.8215
56.9572	9.7222	1.6434
57.0420	8.0556	1.4959
57.1268	9.4444	1.6197
57.2116	9.1667	1.5957
57.2964	11.3889	1.7786
57.3812	12.5000	1.8634
57.4660	13.3333	1.9245
57.5508	13.3333	1.9245
57.6356	16.9444	2.1695
57.7204	25.2778	2.6498
57.8052	34.1667	3.0807
57.8900	48.8889	3.6851
57.9748	62.7778	4.1759
58.0596	43.8889	3.4916
58.1444	28.3333	2.8054
58.2292	13.8889	1.9642
58.3140	15.2778	2.0601
58.3988	15.0000	2.0412
58.4836	10.0000	1.6667
58.5684	9.7222	1.6434
58.6532	7.7778	1.4699
58.7380	8.0556	1.4959
58.8227	8.0556	1.4959
58.9075	9.1667	1.5957
58.9923	9.4444	1.6197
59.0771	10.0000	1.6667
59.1619	8.8889	1.5713
59.2467	9.7222	1.6434
59.3315	10.2778	1.6897
59.4163	9.4444	1.6197
59.5011	10.5556	1.7123
59.5859	9.4444	1.6197
59.6707	9.4444	1.6197
59.7555	10.2778	1.6897
59.8403	10.0000	1.6667
59.9251	10.8333	1.7347
60.0099	9.1667	1.5957
60.0947	13.3333	1.9245
60.1795	11.3889	1.7786
60.2643	8.8889	1.5713
60.3491	12.2222	1.8426
60.4339	9.1667	1.5957
60.5187	8.8889	1.5713
60.6035	11.3889	1.7786
60.6883	10.8333	1.7347
60.7731	10.0000	1.6667
60.8579	10.8333	1.7347
60.9427	8.6111	1.5466
61.0275	10.0000	1.6667
61.1123	9.7222	1.6434
61.1971	8.0556	1.4959
61.2819	10.2778	1.6897
61.3667	8.0556	1.4959
61.4514	10.5556	1.7123
61.5362	10.5556	1.7123
61.6210	13.2500	1.8200
61.7058	10.0000	1.5811
61.7906	10.0000	1.5811
61.8754	8.7500	1.4790
61.9602	8.2500	1.4361
62.0450	10.2500	1.6008
62.1298	10.7500	1.6394
62.2146	7.5000	1.3693
62.2994	7.5000	1.3693
62.3842	12.5000	1.7678
62.4690	8.5000	1.4577
62.5538	11.0000	1.6583
62.6386	10.7500	1.6394
62.7234	11.0000	1.6583
62.8082	9.0000	1.5000
62.8930	10.5000	1.6202
62.9778	7.2500	1.3463
63.0626	12.0000	1.7321
63.1474	12.2500	1.7500
63.2322	10.5000	1.6202
63.3170	9.5000	1.5411
63.4018	8.7500	1.4790
63.4866	9.5000	1.5411
63.5714	7.5000	1.3693
63.6562	10.2500	1.6008
63.7410	13.2500	1.8200
63.8258	11.7500	1.7139
63.9106	9.5000	1.5411
63.9953	8.5000	1.4577
64.0801	9.5000	1.5411
64.1649	11.2500	1.6771
64.2497	11.1905	1.6323
64.3345	12.3810	1.7169
64.4193	10.0000	1.5430
64.5041	7.1429	1.3041
64.5889	9.7619	1.5246
64.6737	9.2857	1.4869
64.7585	13.0952	1.7658
64.8433	9.0476	1.4677
64.9281	11.6667	1.6667
65.0129	8.5714	1.4286
65.0977	12.1429	1.7003
65.1825	11.6667	1.6667
65.2673	12.6190	1.7334
65.3521	14.2857	1.8443
65.4369	6.3636	1.2026
65.5217	12.2727	1.6701
65.6065	11.1364	1.5909
65.6913	10.0000	1.5076
65.7761	9.3182	1.4553
65.8609	9.3182	1.4553
65.9457	12.9545	1.7159
66.0305	8.8636	1.4193
66.1153	11.1364	1.5909
66.2001	8.4091	1.3824
66.2849	8.6364	1.4010
66.3697	11.8182	1.6389
66.4545	12.0455	1.6546
66.5392	14.3182	1.8039
66.6240	13.4091	1.7457
66.7088	15.0000	1.8464
66.7936	15.4545	1.8741
66.8784	11.8182	1.6389
66.9632	10.2273	1.5246
67.0480	12.7273	1.7008
67.1328	12.5000	1.6855
67.2176	13.6364	1.7604
67.3024	10.9091	1.5746
67.3872	9.7727	1.4903
67.4720	11.1364	1.5909
67.5568	12.5000	1.6855
67.6416	10.6818	1.5581
67.7264	10.9091	1.5746
67.8112	11.1364	1.5909
67.8960	11.0870	1.5525
67.9808	12.8261	1.6698
68.0656	11.9565	1.6122
68.1504	12.1739	1.6268
68.2352	11.7391	1.5975
68.3200	10.8696	1.5372
68.4048	12.3913	1.6413
68.4896	11.3043	1.5676
68.5744	10.2174	1.4904
68.6592	11.9565	1.6122
68.7440	14.3478	1.7661
68.8288	9.5652	1.4420
68.9136	9.4000	1.3711
68.9984	10.0000	1.4142
69.0831	12.0000	1.5492
69.1679	10.6000	1.4560
69.2527	15.0000	1.7321
69.3375	11.0000	1.4832
69.4223	9.0000	1.3416
69.5071	12.0000	1.5492
69.5919	11.4000	1.5100
69.6767	12.6000	1.5875
69.7615	10.4000	1.4422
69.8463	11.0000	1.4832
69.9311	13.2000	1.6248
70.0159	12.0000	1.5492
70.1007	14.8000	1.7205
70.1855	12.0000	1.5492
70.2703	11.4000	1.5100
70.3551	13.6538	1.6204
70.4399	10.9615	1.4519
70.5247	9.6154	1.3598
70.6095	14.6154	1.6765
70.6943	11.7308	1.5020
70.7791	12.3077	1.5385
70.8639	15.1923	1.7093
70.9487	12.5000	1.5504
71.0335	13.6538	1.6204
71.1183	12.8846	1.5741
71.2031	9.4231	1.3462
71.2879	14.8148	1.6563
71.3727	14.0741	1.6144
71.4575	12.5926	1.5271
71.5423	13.5185	1.5822
71.6270	13.7037	1.5930
71.7118	13.5185	1.5822
71.7966	16.4815	1.7470
71.8814	17.2222	1.7859
71.9662	15.9259	1.7173
72.0510	16.4815	1.7470
72.1358	16.6667	1.7568
72.2206	24.4444	2.1276
72.3054	21.1111	1.9772
72.3902	23.7037	2.0951
72.4750	27.9630	2.2756
72.5598	53.8889	3.1590
72.6446	92.5926	4.1409
72.7294	95.7407	4.2107
72.8142	82.2222	3.9021
72.8990	69.0741	3.5765
72.9838	46.2963	2.9280
73.0686	31.4815	2.4145
73.1534	22.5926	2.0454
73.2382	20.1852	1.9334
73.3230	16.2963	1.7372
73.4078	14.4444	1.6355
73.4926	16.8519	1.7666
73.5774	9.6296	1.3354
73.6622	12.8571	1.5152
73.7470	11.6071	1.4397
73.8318	12.6786	1.5047
73.9166	11.6071	1.4397
74.0014	12.3214	1.4833
74.0862	12.6786	1.5047
74.1709	11.7857	1.4507
74.2557	14.1071	1.5872
74.3405	11.9643	1.4617
74.4253	10.1786	1.3482
74.5101	15.3571	1.6560
74.5949	11.6071	1.4397
74.6797	11.6071	1.4397
74.7645	10.3571	1.3600
74.8493	14.2857	1.5972
74.9341	10.3571	1.3600
75.0189	8.9286	1.2627
75.1037	12.3214	1.4833
75.1885	12.3214	1.4833
75.2733	13.0000	1.4720
75.3581	11.5000	1.3844
75.4429	11.1667	1.3642
75.5277	13.6667	1.5092
75.6125	12.3333	1.4337
75.6973	10.8333	1.3437
75.7821	10.6667	1.3333
75.8669	11.1667	1.3642
75.9517	8.8710	1.1962
76.0365	13.3871	1.4694
76.1213	8.3871	1.1631
76.2061	11.7742	1.3781
76.2909	13.0645	1.4516
76.3757	14.0323	1.5044
76.4605	12.0968	1.3968
76.5453	10.3226	1.2903
76.6301	12.7419	1.4336
76.7149	11.2903	1.3495
76.7996	10.4839	1.3004
76.8844	10.0000	1.2700
76.9692	10.3226	1.2903
77.0540	10.1613	1.2802
77.1388	10.8065	1.3202
77.2236	11.9355	1.3875
77.3084	11.2903	1.3495
77.3932	12.9032	1.4426
77.4780	9.5161	1.2389
77.5628	9.8387	1.2597
77.6476	11.4516	1.3591
77.7324	11.4063	1.3350
77.8172	14.0625	1.4823
77.9020	10.0000	1.2500
77.9868	9.2188	1.2002
78.0716	8.7500	1.1693
78.1564	11.0938	1.3166
78.2412	14.5313	1.5068
78.3260	10.7813	1.2979
78.4108	10.9375	1.3073
78.4956	10.3125	1.2694
78.5804	10.0000	1.2500
78.6652	11.0938	1.3166
78.7500	11.8750	1.3622
78.8348	13.2813	1.4406
78.9196	12.3438	1.3888
79.0044	12.6563	1.4063
79.0892	10.0000	1.2500
79.1740	10.7813	1.2979
79.2588	12.6563	1.4063
79.3435	13.7500	1.4658
79.4283	12.5000	1.3975
79.5131	14.3750	1.4987
79.5979	11.8750	1.3622
79.6827	11.8750	1.3622
79.7675	12.1875	1.3800
79.8523	10.0000	1.2500
79.9371	13.7500	1.4658
80.0219	11.7188	1.3532
80.1067	13.4375	1.4490
80.1915	11.6176	1.3071
80.2763	11.0294	1.2736
80.3611	9.8529	1.2037
80.4459	8.6765	1.1296
80.5307	9.2647	1.1672
80.6155	11.8571	1.3015
80.7003	11.4286	1.2778
80.7851	11.2857	1.2697
80.8699	10.5714	1.2289
80.9547	9.0000	1.1339
81.0395	10.8571	1.2454
81.1243	11.1429	1.2617
81.2091	10.4286	1.2206
81.2939	11.2857	1.2697
81.3787	10.2857	1.2122
81.4635	13.2857	1.3777
81.5483	13.4286	1.3851
81.6331	10.8571	1.2454
81.7179	10.8571	1.2454
81.8027	11.2857	1.2697
81.8874	11.1429	1.2617
81.9722	10.8571	1.2454
82.0570	11.2857	1.2697
82.1418	11.7143	1.2936
82.2266	12.7143	1.3477
82.3114	11.8571	1.3015
82.3962	10.0000	1.1952
82.4810	9.4286	1.1606
82.5658	11.1429	1.2617
82.6506	14.7222	1.4299
82.7354	10.6944	1.2187
82.8202	13.4722	1.3679
82.9050	8.0556	1.0577
82.9898	10.1351	1.1703
83.0746	11.0811	1.2237
83.1594	11.8919	1.2677
83.2442	9.8649	1.1546
83.3290	9.8649	1.1546
83.4138	12.7027	1.3102
83.4986	10.6757	1.2011
83.5834	10.9459	1.2162
83.6682	12.7027	1.3102
83.7530	12.1622	1.2820
83.8378	10.2703	1.1781
83.9226	10.5405	1.1935
84.0074	10.9459	1.2162
84.0922	10.0000	1.1625
84.1770	12.0270	1.2749
84.2618	11.8919	1.2677
84.3466	10.6757	1.2011
84.4313	8.2432	1.0554
84.5161	12.5676	1.3032
84.6009	12.1622	1.2820
84.6857	12.5676	1.3032
84.7705	10.9459	1.2162
84.8553	13.3784	1.3446
84.9401	11.0811	1.2237
85.0249	10.8108	1.2087
85.1097	11.0811	1.2237
85.1945	11.4865	1.2459
85.2793	13.9189	1.3715
85.3641	13.0769	1.2948
85.4489	11.5385	1.2163
85.5337	12.1795	1.2496
85.6185	12.9487	1.2884
85.7033	14.6154	1.3689
85.7881	13.0769	1.2948
85.8729	16.0256	1.4334
85.9577	16.2821	1.4448
86.0425	16.0256	1.4334
86.1273	22.0513	1.6814
86.2121	29.6154	1.9485
86.2969	33.9744	2.0870
86.3817	31.9231	2.0230
86.4665	32.4359	2.0392
86.5513	29.8718	1.9570
86.6361	26.7949	1.8534
86.7209	21.5385	1.6617
86.8057	16.2821	1.4448
86.8905	11.9231	1.2364
86.9752	14.6154	1.3689
87.0600	11.1538	1.1958
87.1448	12.9487	1.2884
87.2296	11.4103	1.2095
87.3144	10.1282	1.1395
87.3992	10.5128	1.1609
87.4840	11.7949	1.2297
87.5688	9.6250	1.0969
87.6536	10.7500	1.1592
87.7384	10.3750	1.1388
87.8232	11.3750	1.1924
87.9080	14.2500	1.3346
87.9928	11.2500	1.1859
88.0776	12.8750	1.2686
88.1624	12.2500	1.2374
88.2472	9.7500	1.1040
88.3320	13.1250	1.2809
88.4168	10.6250	1.1524
88.5016	12.5000	1.2500
88.5864	9.7500	1.1040
88.6712	10.5000	1.1456
88.7560	11.6250	1.2055
88.8408	10.5000	1.1456
88.9256	10.6250	1.1524
89.0104	8.6250	1.0383
89.0952	10.6250	1.1524
89.1800	11.1250	1.1792
89.2648	13.6250	1.3050
89.3496	11.3750	1.1924
89.4344	11.8750	1.2183
89.5192	11.1250	1.1792
89.6039	11.3750	1.1924
89.6887	7.8750	0.9922
89.7735	12.5000	1.2500
89.8583	9.7500	1.1040
89.9431	9.1250	1.0680
90.0279	11.0714	1.1481
90.1127	10.7143	1.1294
90.1975	10.5952	1.1231
90.2823	12.5000	1.2199
90.3671	9.4048	1.0581
90.4519	10.7143	1.1294
90.5367	10.2381	1.1040
90.6215	9.4048	1.0581
90.7063	9.6429	1.0714
90.7911	11.3095	1.1603
90.8759	11.3095	1.1603
90.9607	11.1905	1.1542
91.0455	8.6905	1.0171
91.1303	10.7143	1.1294
91.2151	11.7857	1.1845
91.2999	11.7857	1.1845
91.3847	11.4286	1.1664
91.4695	9.8810	1.0846
91.5543	9.2857	1.0514
91.6391	10.5952	1.1231
91.7239	10.8333	1.1356
91.8087	11.0714	1.1481
91.8935	12.7381	1.2314
91.9783	10.9524	1.1419
92.0631	9.8810	1.0846
92.1478	13.3333	1.2599
92.2326	10.3571	1.1104
92.3174	11.3636	1.1364
92.4022	12.0455	1.1700
92.4870	10.6667	1.0887
92.5718	9.7778	1.0423
92.6566	10.2222	1.0657
92.7414	10.7778	1.0943
92.8262	11.4444	1.1277
92.9110	11.1111	1.1111
92.9958	12.3333	1.1706
93.0806	12.0000	1.1547
93.1654	11.3333	1.1222
93.2502	9.1111	1.0062
93.3350	11.7778	1.1440
93.4198	10.8889	1.0999
93.5046	12.7778	1.1915
93.5894	10.6667	1.0887
93.6742	12.1111	1.1600
93.7590	11.2222	1.1167
93.8438	9.3333	1.0184
93.9286	10.3333	1.0715
94.0134	12.4444	1.1759
94.0982	12.6667	1.1863
94.1830	11.4444	1.1277
94.2678	10.3333	1.0715
94.3526	11.5556	1.1331
94.4374	12.3333	1.1706
94.5222	11.8889	1.1493
94.6070	10.7778	1.0943
94.6917	12.3333	1.1706
94.7765	10.7778	1.0943
94.8613	11.4894	1.1056
94.9461	9.7872	1.0204
95.0309	12.1277	1.1359
95.1157	12.4468	1.1507
95.2005	12.0213	1.1309
95.2853	9.1489	0.9866
95.3701	13.9362	1.2176
95.4549	12.3404	1.1458
95.5397	12.5532	1.1556
95.6245	12.3404	1.1458
95.7093	11.8085	1.1208
95.7941	11.5957	1.1107
95.8789	11.9149	1.1259
95.9637	10.2128	1.0423
96.0485	13.1915	1.1846
96.1333	10.5319	1.0585
96.2181	11.5957	1.1107
96.3029	11.7021	1.1158
96.3877	10.0000	1.0314
96.4725	11.1702	1.0901
96.5573	12.4468	1.1507
96.6421	12.2340	1.1408
96.7269	9.7872	1.0204
96.8117	13.6170	1.2036
96.8965	11.3830	1.1004
96.9813	13.0851	1.1798
97.0661	14.1489	1.2269
97.1509	11.3830	1.1004
97.2356	12.9787	1.1750
97.3204	11.3830	1.1004
97.4052	9.6939	0.9946
97.4900	11.4286	1.0799
97.5748	10.7143	1.0456
97.6596	11.2245	1.0702
97.7444	11.7347	1.0943
97.8292	11.3265	1.0751
97.9140	12.2449	1.1178
97.9988	10.2041	1.0204
98.0836	13.3673	1.1679
98.1684	10.5102	1.0356
98.2532	14.4898	1.2160
98.3380	14.2857	1.2074
98.4228	10.5102	1.0356
98.5076	13.5714	1.1768
98.5924	13.1633	1.1590
98.6772	15.4082	1.2539
98.7620	11.8367	1.0990
98.8468	14.2857	1.2074
98.9316	14.5918	1.2202
99.0164	15.0000	1.2372
99.1012	15.8163	1.2704
99.1860	17.1429	1.3226
99.2708	16.5306	1.2988
99.3556	19.6939	1.4176
99.4404	20.4082	1.4431
99.5252	27.1429	1.6642
99.6100	38.8776	1.9918
99.6948	52.0408	2.3044
99.7795	48.3000	2.1977
99.8643	45.9000	2.1424
99.9491	38.2000	1.9545
100.0339	37.8000	1.9442
100.1187	35.4000	1.8815
100.2035	28.4000	1.6852
100.2883	23.4000	1.5297
100.3731	18.5000	1.3601
100.4579	16.8000	1.2961
100.5427	14.5000	1.2042
100.6275	15.0000	1.2247
100.7123	12.5000	1.1180
100.7971	12.1000	1.1000
100.8819	15.1000	1.2288
100.9667	13.6000	1.1662
101.0515	13.4000	1.1576
101.1363	14.0000	1.1832
101.2211	12.1000	1.1000
101.3059	12.4000	1.1136
101.3907	11.9000	1.0909
101.4755	13.4000	1.1576
101.5603	14.9000	1.2207
101.6451	13.0000	1.1402
101.7299	14.1000	1.1874
101.8147	13.3000	1.1533
101.8995	12.9000	1.1358
101.9843	13.3000	1.1533
102.0691	17.2000	1.3115
102.1539	11.3000	1.0630
102.2387	12.3000	1.1091
102.3234	13.2000	1.1489
102.4082	10.6000	1.0296
102.4930	13.2000	1.1489
102.5778	12.8846	1.1131
102.6626	12.0192	1.0750
102.7474	12.5962	1.1005
102.8322	13.2692	1.1296
102.9170	12.8846	1.1131
103.0018	12.8846	1.1131
103.0866	11.2500	1.0401
103.1714	14.7115	1.1894
103.2562	10.9615	1.0266
103.3410	14.9038	1.1971
103.4258	12.7885	1.1089
103.5106	13.3654	1.1336
103.5954	12.8846	1.1131
103.6802	13.4615	1.1377
103.7650	11.5385	1.0533
103.8498	11.5385	1.0533
103.9346	13.8462	1.1538
104.0194	12.1154	1.0793
104.1042	12.4038	1.0921
104.1890	12.3077	1.0879
104.2738	12.5000	1.0963
104.3586	14.1346	1.1658
104.4434	13.6538	1.1458
104.5282	13.0769	1.1213
104.6130	13.0769	1.1213
104.6978	11.6346	1.0577
104.7826	11.9231	1.0707
104.8674	12.8846	1.1131
104.9521	12.9808	1.1172
105.0369	12.5962	1.1005
105.1217	13.2692	1.1296
105.2065	11.1538	1.0356
105.2913	15.0000	1.2010
105.3761	11.1111	1.0143
105.4609	12.6852	1.0838
105.5457	11.0000	1.0000
105.6305	10.9091	0.9959
105.7153	11.5455	1.0245
105.8001	9.6364	0.9360
105.8849	12.8182	1.0795
105.9697	11.2727	1.0123
106.0545	11.5455	1.0245
106.1393	12.8182	1.0795
106.2241	12.3636	1.0602
106.3089	13.7273	1.1171
106.3937	12.5455	1.0679
106.4785	12.1818	1.0523
106.5633	10.7273	0.9875
106.6481	12.0909	1.0484
106.7329	12.5455	1.0679
106.8177	11.6364	1.0285
106.9025	13.3636	1.1022
106.9873	12.1818	1.0523
107.0721	12.2727	1.0563
107.1569	13.3636	1.1022
107.2417	10.4545	0.9749
107.3265	13.5455	1.1097
107.4113	13.0909	1.0909
107.4960	12.2727	1.0563
107.5808	11.5455	1.0245
107.6656	12.7273	1.0757
107.7504	13.4545	1.1060
107.8352	12.5455	1.0679
107.9200	12.7273	1.0757
108.0048	12.3636	1.0602
108.0896	12.2727	1.0563
108.1744	11.4545	1.0205
108.2592	11.8182	1.0365
108.3440	13.5455	1.1097
108.4288	13.0909	1.0909
108.5136	12.1053	1.0305
108.5984	14.1228	1.1130
108.6832	11.1404	0.9885
108.7680	11.4545	1.0205
108.8528	14.4444	1.1565
108.9376	11.2500	1.0401
109.0224	12.0000	1.0954
109.1072	12.7551	1.1409
109.1920	11.9149	1.1259
109.2768	12.2222	1.1653
109.3616	13.3333	1.2172
109.4464	15.1190	1.3416
109.5312	11.9048	1.1905
109.6160	11.6250	1.2055
109.7008	13.0769	1.2948
109.7856	12.9730	1.3240
109.8704	13.0556	1.3466
109.9552	10.2941	1.2304
109.9834	12.2059	1.3398