File: XRD/Homogenization/4_WTaV_HIP1800C_8h_txt.txt
1.544427
20.0707	44.7778	2.2305
20.1555	43.2222	2.1915
20.2403	40.3333	2.1170
20.3251	39.7778	2.1023
20.4099	37.8889	2.0518
20.4946	42.4444	2.1716
20.5794	37.1111	2.0306
20.6642	40.0000	2.1082
20.7490	41.8947	2.1000
20.8338	36.2105	1.9523
20.9186	36.1053	1.9495
21.0034	32.4211	1.8474
21.0882	36.7368	1.9665
21.1730	35.6842	1.9381
21.2578	39.7895	2.0465
21.3426	36.5000	1.9105
21.4274	35.4000	1.8815
21.5122	33.6000	1.8330
21.5970	36.8000	1.9183
21.6818	38.2000	1.9545
21.7666	37.3000	1.9313
21.8514	34.4000	1.8547
21.9362	36.4000	1.9079
22.0210	36.4000	1.9079
22.1058	35.6000	1.8868
22.1906	35.7000	1.8894
22.2754	34.4000	1.8547
22.3602	30.5000	1.7464
22.4450	32.0000	1.7889
22.5298	31.7000	1.7804
22.6146	33.7000	1.8358
22.6994	31.9000	1.7861
22.7842	34.4000	1.8547
22.8690	37.0000	1.9235
22.9538	29.8000	1.7263
23.0385	29.6000	1.7205
23.1233	31.8000	1.7833
23.2081	33.4000	1.8276
23.2929	32.4000	1.8000
23.3777	30.8000	1.7550
23.4625	28.6000	1.6912
23.5473	29.0000	1.7029
23.6321	30.3000	1.7407
23.7169	27.5000	1.6583
23.8017	30.8000	1.7550
23.8865	31.5000	1.7748
23.9713	31.3000	1.7692
24.0561	31.2000	1.7664
24.1409	31.4000	1.7720
24.2257	26.3000	1.6217
24.3105	29.8000	1.7263
24.3953	27.6000	1.6613
24.4801	27.1000	1.6462
24.5649	30.9000	1.7578
24.6497	26.1000	1.6155
24.7345	31.7000	1.7804
24.8193	29.7000	1.7234
24.9041	28.1000	1.6763
24.9889	30.4000	1.7436
25.0737	26.0000	1.6125
25.1585	27.4286	1.6162
25.2433	27.0476	1.6050
25.3281	28.0952	1.6358
25.4129	26.8571	1.5993
25.4977	27.4286	1.6162
25.5824	27.6190	1.6218
25.6672	26.3810	1.5851
25.7520	29.1818	1.6288
25.8368	27.7273	1.5877
25.9216	24.3636	1.4882
26.0064	24.7273	1.4993
26.0912	25.0909	1.5103
26.1760	27.3636	1.5772
26.2608	29.4545	1.6364
26.3456	25.6364	1.5266
26.4304	26.6364	1.5561
26.5152	26.8182	1.5614
26.6000	38.7273	1.8763
26.6848	47.9091	2.0870
26.7696	33.5455	1.7463
26.8544	25.2727	1.5158
26.9392	24.0000	1.4771
27.0240	24.6364	1.4966
27.1088	25.1818	1.5130
27.1936	24.1818	1.4827
27.2784	24.8182	1.5021
27.3632	23.0000	1.4460
27.4480	26.6364	1.5561
27.5328	23.4545	1.4602
27.6176	22.5455	1.4316
27.7024	23.8182	1.4715
27.7872	24.9091	1.5048
27.8720	22.7273	1.4374
27.9568	24.9091	1.5048
28.0416	24.3636	1.4882
28.1263	21.4545	1.3966
28.2111	22.0000	1.4142
28.2959	21.7273	1.4054
28.3807	20.9091	1.3787
28.4655	24.8182	1.5021
28.5503	22.0000	1.4142
28.6351	24.4545	1.4910
28.7199	19.5455	1.3330
28.8047	21.6364	1.4025
28.8895	23.0000	1.4460
28.9743	22.2727	1.4230
29.0591	20.5455	1.3667
29.1439	22.1818	1.4200
29.2287	24.4545	1.4910
29.3135	21.6364	1.4025
29.3983	22.3636	1.4259
29.4831	21.5652	1.3694
29.5679	20.0000	1.3188
29.6527	22.3478	1.3940
29.7375	19.5652	1.3043
29.8223	20.2609	1.3273
29.9071	21.7391	1.3749
29.9919	20.9565	1.3499
30.0767	21.4783	1.3666
30.1615	22.1667	1.3591
30.2463	19.3333	1.2693
30.3311	20.3333	1.3017
30.4159	20.2500	1.2990
30.5007	18.1667	1.2304
30.5855	20.1667	1.2964
30.6702	23.3333	1.3944
30.7550	19.0000	1.2583
30.8398	19.6667	1.2802
30.9246	20.7500	1.3150
31.0094	19.4167	1.2720
31.0942	16.1667	1.1607
31.1790	20.0000	1.2910
31.2638	18.3333	1.2360
31.3486	19.6667	1.2802
31.4334	21.5000	1.3385
31.5182	18.1667	1.2304
31.6030	21.4167	1.3359
31.6878	20.5000	1.3070
31.7726	19.5833	1.2775
31.8574	18.1667	1.2304
31.9422	21.7500	1.3463
32.0270	20.8333	1.3176
32.1118	20.5000	1.3070
32.1966	20.2500	1.2990
32.2814	20.3333	1.3017
32.3662	17.7500	1.2162
32.4510	16.8333	1.1844
32.5358	18.3333	1.2360
32.6206	16.5833	1.1756
32.7054	18.3333	1.2360
32.7902	17.4167	1.2047
32.8750	16.9167	1.1873
32.9598	16.6667	1.1785
33.0446	18.3333	1.2360
33.1294	17.9167	1.2219
33.2142	17.0000	1.1902
33.2989	15.8333	1.1487
33.3837	18.3333	1.2360
33.4685	16.1667	1.1607
33.5533	15.0833	1.1211
33.6381	18.1667	1.2304
33.7229	17.1667	1.1961
33.8077	18.1667	1.2304
33.8925	18.4000	1.2133
33.9773	17.9200	1.1973
34.0621	17.2000	1.1730
34.1469	18.0800	1.2027
34.2317	16.4800	1.1482
34.3165	16.4800	1.1482
34.4013	18.5600	1.2185
34.4861	18.8800	1.2290
34.5709	16.2308	1.1174
34.6557	18.0000	1.1767
34.7405	19.0000	1.2089
34.8253	24.6154	1.3760
34.9101	27.2308	1.4473
34.9949	25.3846	1.3974
35.0797	18.6154	1.1966
35.1645	17.7692	1.1691
35.2493	17.2308	1.1513
35.3341	14.6154	1.0603
35.4189	17.4615	1.1590
35.5037	16.6154	1.1305
35.5885	14.9231	1.0714
35.6733	15.5385	1.0933
35.7581	17.3846	1.1564
35.8428	16.1538	1.1147
35.9276	13.9231	1.0349
36.0124	16.6154	1.1305
36.0972	15.3846	1.0879
36.1820	16.6154	1.1305
36.2668	16.0769	1.1121
36.3516	16.2308	1.1174
36.4364	14.0000	1.0377
36.5212	15.6923	1.0987
36.6060	15.0000	1.0742
36.6908	16.1538	1.1147
36.7756	13.7692	1.0292
36.8604	15.2308	1.0824
36.9452	15.1538	1.0797
37.0300	14.0000	1.0377
37.1148	15.0000	1.0742
37.1996	15.0769	1.0769
37.2844	13.3846	1.0147
37.3692	15.8462	1.1041
37.4540	15.5385	1.0933
37.5388	14.7692	1.0659
37.6236	14.7692	1.0659
37.7084	13.8462	1.0320
37.7932	15.3077	1.0851
37.8780	16.2308	1.1174
37.9628	15.3077	1.0851
38.0476	17.0769	1.1461
38.1324	18.2308	1.1842
38.2172	16.7692	1.1358
38.3020	13.5556	1.0021
38.3867	15.0370	1.0554
38.4715	16.1481	1.0937
38.5563	13.9259	1.0157
38.6411	15.3333	1.0657
38.7259	16.8148	1.1160
38.8107	17.4074	1.1355
38.8955	15.0370	1.0554
38.9803	17.7037	1.1452
39.0651	18.1429	1.1384
39.1499	22.2857	1.2617
39.2347	20.1429	1.1995
39.3195	24.6429	1.3267
39.4043	28.2857	1.4214
39.4891	32.7857	1.5303
39.5739	44.0000	1.7728
39.6587	60.0714	2.0714
39.7435	80.3571	2.3958
39.8283	109.1429	2.7921
39.9131	133.5714	3.0888
39.9979	158.5714	3.3655
40.0827	209.1429	3.8651
40.1675	186.5000	3.6499
40.2523	152.0000	3.2950
40.3371	105.7857	2.7488
40.4219	67.2143	2.1911
40.5067	44.9286	1.7914
40.5915	33.2857	1.5419
40.6763	26.8571	1.3851
40.7611	22.2143	1.2597
40.8459	22.0714	1.2556
40.9306	18.2143	1.1406
41.0154	15.8571	1.0643
41.1002	16.3571	1.0809
41.1850	15.2143	1.0425
41.2698	14.0714	1.0025
41.3546	14.7857	1.0277
41.4394	12.2143	0.9340
41.5242	15.0000	1.0351
41.6090	14.8571	1.0302
41.6938	13.7143	0.9897
41.7786	13.9286	0.9974
41.8634	15.5714	1.0546
41.9482	13.3571	0.9768
42.0330	10.7857	0.8777
42.1178	12.7857	0.9556
42.2026	13.7143	0.9897
42.2874	14.5000	1.0177
42.3722	14.1429	1.0051
42.4570	11.7143	0.9147
42.5418	12.7143	0.9530
42.6266	13.6552	0.9704
42.7114	11.6552	0.8966
42.7962	13.7931	0.9753
42.8810	10.9655	0.8696
42.9658	11.8621	0.9045
43.0506	10.6897	0.8586
43.1354	12.4138	0.9253
43.2202	12.0690	0.9123
43.3050	10.8966	0.8669
43.3898	10.6207	0.8558
43.4745	11.4000	0.8718
43.5593	11.4000	0.8718
43.6441	10.7333	0.8459
43.7289	11.3333	0.8692
43.8137	11.5333	0.8769
43.8985	10.8667	0.8511
43.9833	11.4000	0.8718
44.0681	10.5333	0.8380
44.1529	11.8667	0.8894
44.2377	10.3333	0.8300
44.3225	11.1333	0.8615
44.4073	13.2000	0.9381
44.4921	9.8667	0.8110
44.5769	10.3333	0.8300
44.6617	10.8667	0.8511
44.7465	9.8000	0.8083
44.8313	9.1333	0.7803
44.9161	10.4667	0.8353
45.0009	10.8000	0.8485
45.0857	10.7333	0.8459
45.1705	10.7333	0.8459
45.2553	9.4667	0.7944
45.3401	9.4667	0.7944
45.4249	9.0000	0.7746
45.5097	10.3333	0.8300
45.5945	10.5333	0.8380
45.6793	11.2667	0.8667
45.7641	9.3333	0.7888
45.8489	11.0667	0.8589
45.9337	10.4667	0.8353
46.0184	8.6000	0.7572
46.1032	9.6667	0.8028
46.1880	8.7333	0.7630
46.2728	10.2000	0.8246
46.3576	11.0667	0.8589
46.4424	9.7333	0.8055
46.5272	11.0000	0.8563
46.6120	10.4516	0.8212
46.6968	9.6774	0.7902
46.7816	9.7419	0.7928
46.8664	8.9677	0.7606
46.9512	10.3226	0.8161
47.0360	8.4516	0.7384
47.1208	9.8065	0.7954
47.2056	7.9355	0.7155
47.2904	9.2258	0.7715
47.3752	9.5484	0.7849
47.4600	10.0625	0.7930
47.5448	8.7500	0.7395
47.6296	11.1250	0.8339
47.7144	8.8750	0.7448
47.7992	8.7500	0.7395
47.8840	9.8125	0.7831
47.9688	11.2500	0.8385
48.0536	9.1250	0.7552
48.1384	9.3125	0.7629
48.2232	7.6875	0.6932
48.3080	9.1875	0.7578
48.3928	7.9375	0.7043
48.4776	8.5625	0.7315
48.5624	8.7500	0.7395
48.6471	9.6875	0.7781
48.7319	8.4375	0.7262
48.8167	9.2500	0.7603
48.9015	7.9375	0.7043
48.9863	8.1875	0.7153
49.0711	8.6250	0.7342
49.1559	10.1875	0.7979
49.2407	9.1250	0.7552
49.3255	8.3125	0.7208
49.4103	10.3125	0.8028
49.4951	8.3750	0.7235
49.5799	8.2500	0.7181
49.6647	8.8750	0.7448
49.7495	8.2500	0.7181
49.8343	8.6250	0.7342
49.9191	8.7500	0.7395
50.0039	9.1250	0.7552
50.0887	7.5625	0.6875
50.1735	7.5625	0.6875
50.2583	8.1875	0.7153
50.3431	7.6875	0.6932
50.4279	8.6875	0.7369
50.5127	7.6875	0.6932
50.5975	8.6061	0.7222
50.6823	8.8485	0.7323
50.7671	7.3333	0.6667
50.8519	7.2121	0.6611
50.9367	8.5455	0.7197
51.0215	8.4848	0.7171
51.1063	7.9394	0.6937
51.1910	7.5758	0.6776
51.2758	7.8182	0.6884
51.3606	8.8485	0.7323
51.4454	8.0606	0.6989
51.5302	8.1765	0.6935
51.6150	9.2353	0.7371
51.6998	7.2353	0.6524
51.7846	8.1765	0.6935
51.8694	7.3529	0.6577
51.9542	7.8235	0.6784
52.0390	7.4706	0.6629
52.1238	8.8235	0.7204
52.2086	9.9412	0.7647
52.2934	9.3529	0.7417
52.3782	9.4118	0.7441
52.4630	9.2941	0.7394
52.5478	11.3529	0.8172
52.6326	13.3529	0.8863
52.7174	11.5882	0.8256
52.8022	10.0588	0.7692
52.8870	7.8824	0.6809
52.9718	8.2941	0.6985
53.0566	8.7647	0.7180
53.1414	8.1176	0.6910
53.2262	8.2353	0.6960
53.3110	7.8824	0.6809
53.3958	8.2353	0.6960
53.4806	7.0000	0.6417
53.5654	6.5294	0.6197
53.6502	7.7059	0.6733
53.7349	7.3529	0.6577
53.8197	7.8824	0.6809
53.9045	7.1176	0.6471
53.9893	7.4118	0.6603
54.0741	8.8235	0.7204
54.1589	9.1176	0.7323
54.2437	6.9412	0.6390
54.3285	9.2353	0.7371
54.4133	7.8235	0.6784
54.4981	7.0000	0.6417
54.5829	7.8857	0.6713
54.6677	8.7429	0.7068
54.7525	8.3429	0.6905
54.8373	7.4857	0.6540
54.9221	9.2000	0.7251
55.0069	9.7143	0.7451
55.0917	9.7714	0.7472
55.1765	7.7143	0.6639
55.2613	9.3714	0.7318
55.3461	7.3714	0.6490
55.4309	6.5143	0.6101
55.5157	7.8889	0.6620
55.6005	8.2222	0.6759
55.6853	7.8889	0.6620
55.7701	7.8333	0.6597
55.8549	7.4444	0.6431
55.9397	7.7222	0.6550
56.0245	7.1667	0.6310
56.1093	8.7222	0.6961
56.1941	8.5556	0.6894
56.2788	8.1111	0.6713
56.3636	7.6111	0.6503
56.4484	8.0000	0.6667
56.5332	8.5556	0.6894
56.6180	9.2778	0.7179
56.7028	9.1111	0.7115
56.7876	8.3889	0.6827
56.8724	11.2778	0.7915
56.9572	11.7222	0.8070
57.0420	10.6667	0.7698
57.1268	11.6111	0.8032
57.2116	13.1111	0.8535
57.2964	14.6111	0.9010
57.3812	16.7778	0.9655
57.4660	18.0556	1.0015
57.5508	21.6667	1.0971
57.6356	22.1111	1.1083
57.7204	26.1111	1.2044
57.8052	27.6111	1.2385
57.8900	30.5556	1.3029
57.9748	35.6111	1.4066
58.0596	37.1667	1.4369
58.1444	31.7222	1.3275
58.2292	26.0000	1.2019
58.3140	20.0000	1.0541
58.3988	16.8333	0.9670
58.4836	13.2432	0.8461
58.5684	11.0270	0.7720
58.6532	9.8378	0.7292
58.7380	9.6757	0.7232
58.8227	8.7027	0.6859
58.9075	8.0000	0.6576
58.9923	7.0270	0.6163
59.0771	7.5135	0.6373
59.1619	9.0270	0.6985
59.2467	7.1351	0.6210
59.3315	8.1622	0.6642
59.4163	6.4324	0.5897
59.5011	8.1081	0.6620
59.5859	7.3684	0.6227
59.6707	6.8947	0.6024
59.7555	7.9474	0.6467
59.8403	7.1579	0.6138
59.9251	8.1053	0.6531
60.0099	7.7368	0.6381
60.0947	7.7368	0.6381
60.1795	7.6316	0.6338
60.2643	8.0526	0.6510
60.3491	10.0000	0.7255
60.4339	8.5789	0.6720
60.5187	8.7895	0.6801
60.6035	8.3684	0.6637
60.6883	7.5789	0.6316
60.7731	8.4211	0.6657
60.8579	6.3684	0.5789
60.9427	7.5789	0.6316
61.0275	6.6316	0.5908
61.1123	6.5789	0.5884
61.1971	6.7895	0.5978
61.2819	6.3684	0.5789
61.3667	7.1053	0.6115
61.4514	7.0000	0.6070
61.5362	7.3158	0.6205
61.6210	6.6316	0.5908
61.7058	7.9474	0.6467
61.7906	7.1579	0.6138
61.8754	7.2105	0.6160
61.9602	7.3158	0.6205
62.0450	10.3684	0.7387
62.1298	9.0000	0.6882
62.2146	9.0526	0.6903
62.2994	6.3684	0.5789
62.3842	6.6316	0.5908
62.4690	6.8205	0.5914
62.5538	6.9744	0.5980
62.6386	7.1282	0.6046
62.7234	7.4359	0.6175
62.8082	6.8718	0.5936
62.8930	7.4359	0.6175
62.9778	6.3077	0.5687
63.0626	6.8205	0.5914
63.1474	6.7692	0.5892
63.2322	7.3333	0.6132
63.3170	7.3333	0.6132
63.4018	6.6154	0.5825
63.4866	6.2564	0.5664
63.5714	7.0500	0.5937
63.6562	7.3659	0.5994
63.7410	6.7317	0.5730
63.8258	6.2439	0.5519
63.9106	6.9268	0.5813
63.9953	6.3415	0.5562
64.0801	6.6829	0.5710
64.1649	7.2195	0.5934
64.2497	6.7805	0.5751
64.3345	6.3415	0.5562
64.4193	6.3902	0.5583
64.5041	6.0488	0.5432
64.5889	6.9268	0.5813
64.6737	6.5854	0.5668
64.7585	6.4390	0.5604
64.8433	6.7442	0.5601
64.9281	6.1860	0.5364
65.0129	6.5581	0.5523
65.0977	7.0698	0.5734
65.1825	5.8140	0.5200
65.2673	6.3721	0.5444
65.3521	5.5814	0.5095
65.4369	6.6977	0.5581
65.5217	8.3721	0.6240
65.6065	7.3953	0.5865
65.6913	7.0233	0.5715
65.7761	5.6744	0.5137
65.8609	6.0000	0.5283
65.9457	7.6279	0.5956
66.0305	7.1111	0.5622
66.1153	6.4444	0.5352
66.2001	6.6222	0.5425
66.2849	6.4889	0.5370
66.3697	6.6222	0.5425
66.4545	6.9333	0.5551
66.5392	7.1556	0.5639
66.6240	8.1333	0.6012
66.7088	7.8222	0.5896
66.7936	8.8889	0.6285
66.8784	6.9333	0.5551
66.9632	6.8444	0.5515
67.0480	8.3111	0.6078
67.1328	7.7778	0.5879
67.2176	8.8696	0.6210
67.3024	6.3830	0.5212
67.3872	6.7660	0.5366
67.4720	6.9787	0.5449
67.5568	5.5319	0.4852
67.6416	7.4043	0.5613
67.7264	5.6170	0.4889
67.8112	7.5745	0.5677
67.8960	6.6383	0.5315
67.9808	6.4255	0.5229
68.0656	5.7447	0.4944
68.1504	6.4255	0.5229
68.2352	6.7234	0.5349
68.3200	6.9167	0.5368
68.4048	7.0000	0.5401
68.4896	5.8776	0.4898
68.5744	7.4286	0.5506
68.6592	6.2041	0.5032
68.7440	5.9592	0.4932
68.8288	5.6735	0.4812
68.9136	7.1020	0.5384
68.9984	7.0612	0.5369
69.0831	7.3469	0.5476
69.1679	7.1020	0.5384
69.2527	8.1224	0.5758
69.3375	7.4694	0.5522
69.4223	6.8163	0.5275
69.5071	7.3600	0.5426
69.5919	6.7600	0.5200
69.6767	6.8000	0.5215
69.7615	6.9804	0.5232
69.8463	6.3922	0.5007
69.9311	6.5882	0.5083
70.0159	6.7059	0.5128
70.1007	7.1765	0.5305
70.1855	7.3333	0.5363
70.2703	7.5294	0.5434
70.3551	7.6471	0.5476
70.4399	6.9020	0.5203
70.5247	7.7255	0.5504
70.6095	5.9216	0.4819
70.6943	7.9231	0.5520
70.7791	7.1154	0.5231
70.8639	7.7308	0.5453
70.9487	8.1509	0.5546
71.0335	7.8491	0.5442
71.1183	7.9623	0.5481
71.2031	8.6415	0.5710
71.2879	8.3019	0.5597
71.3727	11.2830	0.6525
71.4575	10.8302	0.6393
71.5423	10.9057	0.6415
71.6270	11.6604	0.6633
71.7118	12.2642	0.6803
71.7966	11.7736	0.6665
71.8814	12.8148	0.6889
71.9662	14.9630	0.7444
72.0510	17.1111	0.7961
72.1358	20.0000	0.8607
72.2206	20.9455	0.8727
72.3054	24.5455	0.9448
72.3902	24.5455	0.9448
72.4750	27.3818	0.9978
72.5598	30.3273	1.0501
72.6446	33.9273	1.1107
72.7294	41.0545	1.2218
72.8142	45.3091	1.2836
72.8990	45.6727	1.2887
72.9838	42.0727	1.2369
73.0686	40.4643	1.2021
73.1534	35.0357	1.1186
73.2382	28.1786	1.0032
73.3230	21.5357	0.8770
73.4078	17.6842	0.7877
73.4926	17.2281	0.7775
73.5774	13.9298	0.6991
73.6622	11.4035	0.6326
73.7470	10.7368	0.6138
73.8318	10.0000	0.5923
73.9166	9.6140	0.5808
74.0014	9.2632	0.5701
74.0862	8.4912	0.5458
74.1709	8.3448	0.5364
74.2557	6.7241	0.4815
74.3405	9.2759	0.5656
74.4253	7.4483	0.5068
74.5101	7.1724	0.4973
74.5949	6.5517	0.4753
74.6797	6.4746	0.4685
74.7645	6.2034	0.4586
74.8493	7.0169	0.4877
74.9341	7.7627	0.5130
75.0189	7.4237	0.5016
75.1037	6.0678	0.4535
75.1885	7.3898	0.5005
75.2733	7.2542	0.4959
75.3581	5.9667	0.4460
75.4429	6.8333	0.4773
75.5277	6.8333	0.4773
75.6125	6.6333	0.4702
75.6973	6.0333	0.4485
75.7821	7.0333	0.4842
75.8669	6.5902	0.4648
75.9517	6.2623	0.4531
76.0365	6.4590	0.4602
76.1213	7.2459	0.4874
76.2061	6.5902	0.4648
76.2909	6.7213	0.4694
76.3757	6.5246	0.4625
76.4605	7.1803	0.4852
76.5453	6.0323	0.4411
76.6301	6.6452	0.4630
76.7149	6.7742	0.4675
76.7996	6.0968	0.4435
76.8844	6.9677	0.4741
76.9692	6.5806	0.4607
77.0540	6.2258	0.4481
77.1388	6.1270	0.4410
77.2236	5.8095	0.4295
77.3084	6.4127	0.4512
77.3932	7.2381	0.4794
77.4780	6.9841	0.4709
77.5628	5.3333	0.4115
77.6476	6.0635	0.4387
77.7324	6.0313	0.4341
77.8172	6.6875	0.4571
77.9020	6.7188	0.4582
77.9868	5.5000	0.4146
78.0716	6.3438	0.4452
78.1564	7.6250	0.4881
78.2412	6.7188	0.4582
78.3260	6.5846	0.4501
78.4108	5.9385	0.4275
78.4956	6.1846	0.4362
78.5804	6.1846	0.4362
78.6652	7.0462	0.4656
78.7500	6.3077	0.4405
78.8348	6.3385	0.4416
78.9196	6.4848	0.4433
79.0044	7.0000	0.4606
79.0892	5.8788	0.4221
79.1740	5.9697	0.4253
79.2588	6.0909	0.4296
79.3435	6.4848	0.4433
79.4283	7.2121	0.4675
79.5131	6.6364	0.4484
79.5979	7.1343	0.4615
79.6827	5.9701	0.4222
79.7675	6.5075	0.4407
79.8523	6.8657	0.4527
79.9371	5.7910	0.4158
80.0219	5.9701	0.4222
80.1067	6.5882	0.4402
80.1915	6.7941	0.4470
80.2763	6.5000	0.4372
80.3611	6.2353	0.4282
80.4459	7.2647	0.4622
80.5307	5.6765	0.4086
80.6155	7.3235	0.4641
80.7003	7.0588	0.4556
80.7851	6.5797	0.4367
80.8699	6.6957	0.4405
80.9547	6.8696	0.4462
81.0395	6.7246	0.4415
81.1243	6.7826	0.4434
81.2091	6.4286	0.4286
81.2939	6.4857	0.4305
81.3787	6.5714	0.4333
81.4635	7.4857	0.4625
81.5483	6.9429	0.4454
81.6331	7.3714	0.4589
81.7179	6.6000	0.4342
81.8027	7.2286	0.4545
81.8874	6.4286	0.4286
81.9722	6.7429	0.4389
82.0570	6.9296	0.4418
82.1418	6.5634	0.4300
82.2266	6.7324	0.4355
82.3114	6.9296	0.4418
82.3962	7.2222	0.4479
82.4810	7.5000	0.4564
82.5658	6.8056	0.4348
82.6506	7.5556	0.4581
82.7354	7.3611	0.4522
82.8202	7.5833	0.4590
82.9050	7.2778	0.4496
82.9898	6.8056	0.4348
83.0746	7.7500	0.4640
83.1594	6.3889	0.4213
83.2442	7.0411	0.4392
83.3290	7.9726	0.4674
83.4138	8.0548	0.4698
83.4986	8.0274	0.4690
83.5834	7.4865	0.4498
83.6682	7.5405	0.4514
83.7530	7.8108	0.4595
83.8378	7.5405	0.4514
83.9226	7.9730	0.4642
84.0074	7.8649	0.4610
84.0922	7.9189	0.4626
84.1770	7.9730	0.4642
84.2618	8.5946	0.4820
84.3466	7.7568	0.4579
84.4313	8.2432	0.4720
84.5161	7.7333	0.4541
84.6009	8.1067	0.4649
84.6857	8.2933	0.4703
84.7705	8.6842	0.4781
84.8553	7.8947	0.4558
84.9401	8.3421	0.4685
85.0249	8.2368	0.4656
85.1097	8.6053	0.4759
85.1945	7.8684	0.4550
85.2793	8.7105	0.4788
85.3641	9.1579	0.4909
85.4489	8.8421	0.4824
85.5337	9.7368	0.5062
85.6185	9.7632	0.5069
85.7033	11.0649	0.5361
85.7881	11.0130	0.5348
85.8729	11.8442	0.5547
85.9577	14.1026	0.6013
86.0425	13.2564	0.5830
86.1273	15.0513	0.6212
86.2121	14.0769	0.6008
86.2969	16.0513	0.6415
86.3817	18.8974	0.6961
86.4665	20.1795	0.7193
86.5513	22.7949	0.7645
86.6361	22.5385	0.7602
86.7209	22.3077	0.7563
86.8057	20.9487	0.7329
86.8905	19.4684	0.7020
86.9752	17.6203	0.6679
87.0600	14.3250	0.5984
87.1448	13.6250	0.5836
87.2296	12.7250	0.5640
87.3144	11.3750	0.5333
87.3992	10.9000	0.5220
87.4840	10.9000	0.5220
87.5688	9.8500	0.4962
87.6536	9.8250	0.4956
87.7384	10.2000	0.5050
87.8232	9.4000	0.4848
87.9080	9.6250	0.4905
87.9928	10.5250	0.5130
88.0776	10.7750	0.5190
88.1624	10.0494	0.4981
88.2472	8.8537	0.4647
88.3320	9.6098	0.4841
88.4168	9.7073	0.4866
88.5016	9.6341	0.4847
88.5864	9.5122	0.4817
88.6712	10.1463	0.4975
88.7560	9.5854	0.4835
88.8408	9.4390	0.4798
88.9256	9.7317	0.4872
89.0104	9.6098	0.4841
89.0952	8.9268	0.4666
89.1800	9.7805	0.4884
89.2648	9.3659	0.4779
89.3496	9.3494	0.4746
89.4344	9.8333	0.4839
89.5192	10.0714	0.4897
89.6039	9.9762	0.4874
89.6887	10.0476	0.4891
89.7735	10.4048	0.4977
89.8583	9.6905	0.4803
89.9431	10.6429	0.5034
90.0279	9.0714	0.4647
90.1127	10.2857	0.4949
90.1975	9.7381	0.4815
90.2823	10.1905	0.4926
90.3671	9.8095	0.4833
90.4519	11.1667	0.5156
90.5367	9.2857	0.4702
90.6215	9.6512	0.4738
90.7063	11.0000	0.5058
90.7911	11.2326	0.5111
90.8759	10.1860	0.4867
90.9607	11.2326	0.5111
91.0455	10.5116	0.4944
91.1303	11.5581	0.5185
91.2151	11.7674	0.5231
91.2999	11.5814	0.5190
91.3847	11.2558	0.5116
91.4695	11.2326	0.5111
91.5543	11.9767	0.5278
91.6391	11.8605	0.5252
91.7239	11.7674	0.5231
91.8087	12.3864	0.5306
91.8935	12.1818	0.5262
91.9783	11.5000	0.5112
92.0631	12.0227	0.5227
92.1478	12.2045	0.5267
92.2326	11.7727	0.5173
92.3174	12.2045	0.5267
92.4022	11.5000	0.5112
92.4870	12.3636	0.5301
92.5718	12.3864	0.5306
92.6566	12.5000	0.5330
92.7414	12.0455	0.5232
92.8262	12.3636	0.5301
92.9110	12.0455	0.5232
92.9958	10.8764	0.4944
93.0806	11.8889	0.5140
93.1654	12.1778	0.5202
93.2502	11.8444	0.5130
93.3350	11.5778	0.5072
93.4198	12.2667	0.5221
93.5046	12.3111	0.5230
93.5894	11.8667	0.5135
93.6742	11.8667	0.5135
93.7590	12.9333	0.5361
93.8438	12.4889	0.5268
93.9286	13.3333	0.5443
94.0134	12.0222	0.5169
94.0982	12.6374	0.5270
94.1830	12.2857	0.5196
94.2678	11.9565	0.5098
94.3526	12.5652	0.5226
94.4374	13.3478	0.5387
94.5222	12.4348	0.5199
94.6070	13.0870	0.5334
94.6917	12.7609	0.5267
94.7765	13.1304	0.5343
94.8613	13.4348	0.5404
94.9461	13.7391	0.5465
95.0309	12.6304	0.5240
95.1157	13.2391	0.5365
95.2005	13.7826	0.5474
95.2853	12.2366	0.5130
95.3701	12.8817	0.5263
95.4549	13.0108	0.5290
95.5397	13.8298	0.5424
95.6245	13.8936	0.5437
95.7093	12.3404	0.5124
95.7941	13.9787	0.5454
95.8789	13.1489	0.5289
95.9637	13.0213	0.5264
96.0485	13.1064	0.5281
96.1333	12.1915	0.5093
96.2181	13.6809	0.5395
96.3029	14.0426	0.5466
96.3877	13.6809	0.5395
96.4725	14.0632	0.5441
96.5573	14.0000	0.5429
96.6421	13.2211	0.5276
96.7269	13.4792	0.5299
96.8117	13.6250	0.5328
96.8965	13.6458	0.5332
96.9813	13.7083	0.5344
97.0661	13.2708	0.5258
97.1509	14.5000	0.5496
97.2356	14.2708	0.5453
97.3204	12.8542	0.5175
97.4052	14.1667	0.5433
97.4900	13.8542	0.5372
97.5748	15.0833	0.5606
97.6596	14.0619	0.5385
97.7444	14.9072	0.5544
97.8292	13.4433	0.5265
97.9140	14.2268	0.5416
97.9988	15.6327	0.5648
98.0836	13.7959	0.5306
98.1684	14.5714	0.5453
98.2532	15.7143	0.5663
98.3380	15.5102	0.5626
98.4228	14.9184	0.5518
98.5076	15.3061	0.5589
98.5924	15.9592	0.5707
98.6772	16.5510	0.5812
98.7620	15.9592	0.5707
98.8468	17.1224	0.5911
98.9316	16.6531	0.5830
99.0164	17.6566	0.5972
99.1012	18.3030	0.6081
99.1860	18.9000	0.6148
99.2708	20.0800	0.6337
99.3556	19.7400	0.6283
99.4404	20.7200	0.6437
99.5252	20.1400	0.6347
99.6100	22.4000	0.6693
99.6948	23.2800	0.6823
99.7795	24.3600	0.6980
99.8643	29.1600	0.7637
99.9491	29.2600	0.7650
100.0339	33.7000	0.8210
100.1187	32.6200	0.8077
100.2035	31.0200	0.7877
100.2883	29.2800	0.7652
100.3731	29.6200	0.7697
100.4579	27.0196	0.7279
100.5427	24.2941	0.6902
100.6275	24.1373	0.6880
100.7123	21.9608	0.6562
100.7971	20.8824	0.6399
100.8819	21.0980	0.6432
100.9667	19.7843	0.6228
101.0515	18.0980	0.5957
101.1363	19.3725	0.6163
101.2211	16.7059	0.5723
101.3059	16.8824	0.5753
101.3907	15.4510	0.5504
101.4755	16.9608	0.5767
101.5603	16.8039	0.5740
101.6451	15.2941	0.5476
101.7299	15.1176	0.5444
101.8147	15.6471	0.5539
101.8995	15.1538	0.5398
101.9843	16.0000	0.5547
102.0691	14.8077	0.5336
102.1539	13.8269	0.5157
102.2387	14.9615	0.5364
102.3234	15.3077	0.5426
102.4082	16.0192	0.5550
102.4930	14.8654	0.5347
102.5778	14.9808	0.5367
102.6626	14.5000	0.5281
102.7474	15.1538	0.5398
102.8322	14.8462	0.5343
102.9170	15.5192	0.5463
103.0018	14.6731	0.5312
103.0866	15.0385	0.5378
103.1714	15.1346	0.5395
103.2562	15.6952	0.5468
103.3410	15.1132	0.5340
103.4258	15.9057	0.5478
103.5106	14.5849	0.5246
103.5954	14.3019	0.5195
103.6802	14.8113	0.5286
103.7650	14.6792	0.5263
103.8498	15.1698	0.5350
103.9346	14.7358	0.5273
104.0194	14.4906	0.5229
104.1042	14.4528	0.5222
104.1890	14.9623	0.5313
104.2738	14.9057	0.5303
104.3586	14.1698	0.5171
104.4434	15.0377	0.5327
104.5282	14.5094	0.5232
104.6130	14.5094	0.5232
104.6978	14.0748	0.5129
104.7826	14.8224	0.5264
104.8674	13.8333	0.5061
104.9521	13.2407	0.4952
105.0369	13.4815	0.4997
105.1217	14.9259	0.5257
105.2065	14.1667	0.5122
105.2913	14.6667	0.5212
105.3761	13.5926	0.5017
105.4609	14.0926	0.5109
105.5457	14.8889	0.5251
105.6305	15.0556	0.5280
105.7153	14.7037	0.5218
105.8001	13.9815	0.5088
105.8849	14.9630	0.5264
105.9697	14.3704	0.5159
106.0545	14.3519	0.5155
106.1393	14.0734	0.5082
106.2241	14.2385	0.5111
106.3089	14.6182	0.5155
106.3937	15.1091	0.5241
106.4785	14.0182	0.5049
106.5633	14.4000	0.5117
106.6481	14.2182	0.5084
106.7329	14.2182	0.5084
106.8177	14.6000	0.5152
106.9025	14.9455	0.5213
106.9873	14.9091	0.5206
107.0721	14.6727	0.5165
107.1569	13.7818	0.5006
107.2417	14.3273	0.5104
107.3265	13.8909	0.5026
107.4113	13.7818	0.5006
107.4960	13.9279	0.5010
107.5808	13.8559	0.4997
107.6656	15.2252	0.5238
107.7504	14.4286	0.5076
107.8352	14.4286	0.5076
107.9200	14.6071	0.5107
108.0048	14.3214	0.5057
108.0896	15.1071	0.5194
108.1744	13.8929	0.4981
108.2592	14.0357	0.5006
108.3440	15.0536	0.5185
108.4288	13.4464	0.4900
108.5136	14.3214	0.5057
108.5984	14.8214	0.5145
108.6832	15.0179	0.5179
108.7680	14.0550	0.5078
108.8528	13.4528	0.5038
108.9376	14.4078	0.5289
109.0224	15.1000	0.5495
109.1072	14.4330	0.5455
109.1920	14.8298	0.5617
109.2768	15.3696	0.5780
109.3616	14.5393	0.5716
109.4464	14.6279	0.5833
109.5312	14.5542	0.5922
109.6160	13.8750	0.5890
109.7008	13.9740	0.6025
109.7856	15.1892	0.6407
109.8704	14.1127	0.6305
109.9552	13.9706	0.6410
109.9834	14.9254	0.6675