File: XRD/Homogenization/7_W0.35Ta0.40Cr0.25_HIP1800C_8h.xye
1.544427
20.0707	41.3333	2.1430
20.1555	39.1111	2.0846
20.2403	41.5556	2.1488
20.3251	41.1111	2.1373
20.4099	39.2222	2.0876
20.4946	39.4444	2.0935
20.5794	38.1111	2.0578
20.6642	39.7778	2.1023
20.7490	37.0526	1.9749
20.8338	36.3158	1.9552
20.9186	39.1579	2.0302
21.0034	38.0000	2.0000
21.0882	37.6842	1.9917
21.1730	38.8421	2.0220
21.2578	36.7368	1.9665
21.3426	39.1000	1.9774
21.4274	36.2000	1.9026
21.5122	34.9000	1.8682
21.5970	36.2000	1.9026
21.6818	37.5000	1.9365
21.7666	36.6000	1.9131
21.8514	35.9000	1.8947
21.9362	35.6000	1.8868
22.0210	35.9000	1.8947
22.1058	31.9000	1.7861
22.1906	31.1000	1.7635
22.2754	33.0000	1.8166
22.3602	34.1000	1.8466
22.4450	34.1000	1.8466
22.5298	31.7000	1.7804
22.6146	33.0000	1.8166
22.6994	29.5000	1.7176
22.7842	34.6000	1.8601
22.8690	30.3000	1.7407
22.9538	33.1000	1.8193
23.0385	31.9000	1.7861
23.1233	29.2000	1.7088
23.2081	31.4000	1.7720
23.2929	27.5000	1.6583
23.3777	32.6000	1.8055
23.4625	29.1000	1.7059
23.5473	28.1000	1.6763
23.6321	27.0000	1.6432
23.7169	29.7000	1.7234
23.8017	29.9000	1.7292
23.8865	29.9000	1.7292
23.9713	27.6000	1.6613
24.0561	29.8000	1.7263
24.1409	30.2000	1.7378
24.2257	26.9000	1.6401
24.3105	29.6000	1.7205
24.3953	27.1000	1.6462
24.4801	24.3000	1.5588
24.5649	27.5000	1.6583
24.6497	27.8000	1.6673
24.7345	28.4000	1.6852
24.8193	29.6000	1.7205
24.9041	25.9000	1.6093
24.9889	26.7000	1.6340
25.0737	26.9000	1.6401
25.1585	27.8095	1.6274
25.2433	27.1429	1.6078
25.3281	24.4762	1.5268
25.4129	25.3333	1.5533
25.4977	25.7143	1.5649
25.5824	25.2381	1.5504
25.6672	27.9048	1.6302
25.7520	26.7273	1.5588
25.8368	29.3636	1.6338
25.9216	22.9091	1.4431
26.0064	24.1818	1.4827
26.0912	24.5455	1.4938
26.1760	23.3636	1.4574
26.2608	23.6364	1.4659
26.3456	20.8182	1.3757
26.4304	25.3636	1.5185
26.5152	24.6364	1.4966
26.6000	24.8182	1.5021
26.6848	23.1818	1.4517
26.7696	24.0000	1.4771
26.8544	22.0909	1.4171
26.9392	23.9091	1.4743
27.0240	25.4545	1.5212
27.1088	26.1818	1.5428
27.1936	23.9091	1.4743
27.2784	21.2727	1.3906
27.3632	19.6364	1.3361
27.4480	19.8182	1.3423
27.5328	23.3636	1.4574
27.6176	20.2727	1.3576
27.7024	23.0909	1.4489
27.7872	22.9091	1.4431
27.8720	25.3636	1.5185
27.9568	20.7273	1.3727
28.0416	22.0000	1.4142
28.1263	21.0909	1.3847
28.2111	22.4545	1.4287
28.2959	21.1818	1.3877
28.3807	19.3636	1.3268
28.4655	19.4545	1.3299
28.5503	20.7273	1.3727
28.6351	19.7273	1.3392
28.7199	20.7273	1.3727
28.8047	21.2727	1.3906
28.8895	20.7273	1.3727
28.9743	22.8182	1.4403
29.0591	19.8182	1.3423
29.1439	20.1818	1.3545
29.2287	21.6364	1.4025
29.3135	20.0000	1.3484
29.3983	19.1818	1.3205
29.4831	19.3913	1.2985
29.5679	20.4348	1.3330
29.6527	19.4783	1.3014
29.7375	19.1304	1.2898
29.8223	18.1739	1.2571
29.9071	19.7391	1.3101
29.9919	17.7391	1.2420
30.0767	19.4783	1.3014
30.1615	21.0833	1.3255
30.2463	19.8333	1.2856
30.3311	21.5000	1.3385
30.4159	18.1667	1.2304
30.5007	22.5000	1.3693
30.5855	19.5000	1.2748
30.6702	20.2500	1.2990
30.7550	19.5000	1.2748
30.8398	17.5000	1.2076
30.9246	17.9167	1.2219
31.0094	19.7500	1.2829
31.0942	18.0833	1.2276
31.1790	17.2500	1.1990
31.2638	17.9167	1.2219
31.3486	17.6667	1.2134
31.4334	19.9167	1.2883
31.5182	18.0833	1.2276
31.6030	18.3333	1.2360
31.6878	16.5000	1.1726
31.7726	18.5833	1.2444
31.8574	19.0000	1.2583
31.9422	18.8333	1.2528
32.0270	15.9167	1.1517
32.1118	17.7500	1.2162
32.1966	17.1667	1.1961
32.2814	18.0833	1.2276
32.3662	17.8333	1.2191
32.4510	16.9167	1.1873
32.5358	18.0833	1.2276
32.6206	15.8333	1.1487
32.7054	16.0000	1.1547
32.7902	16.4167	1.1696
32.8750	17.7500	1.2162
32.9598	16.5833	1.1756
33.0446	16.7500	1.1815
33.1294	15.4167	1.1335
33.2142	17.5000	1.2076
33.2989	16.7500	1.1815
33.3837	17.8333	1.2191
33.4685	14.6667	1.1055
33.5533	17.9167	1.2219
33.6381	16.6667	1.1785
33.7229	18.9167	1.2555
33.8077	15.3333	1.1304
33.8925	17.8400	1.1947
33.9773	18.3200	1.2106
34.0621	14.9600	1.0940
34.1469	15.2000	1.1027
34.2317	15.7600	1.1229
34.3165	17.8400	1.1947
34.4013	15.2800	1.1056
34.4861	14.9600	1.0940
34.5709	16.4615	1.1253
34.6557	16.0769	1.1121
34.7405	15.7692	1.1014
34.8253	15.1538	1.0797
34.9101	14.3077	1.0491
34.9949	15.4615	1.0906
35.0797	15.0000	1.0742
35.1645	15.5385	1.0933
35.2493	16.0769	1.1121
35.3341	14.5385	1.0575
35.4189	16.5385	1.1279
35.5037	14.8462	1.0686
35.5885	15.4615	1.0906
35.6733	18.5385	1.1942
35.7581	14.7692	1.0659
35.8428	16.6923	1.1331
35.9276	16.0769	1.1121
36.0124	16.3846	1.1227
36.0972	18.9231	1.2065
36.1820	22.8462	1.3257
36.2668	19.3077	1.2187
36.3516	17.3846	1.1564
36.4364	15.7692	1.1014
36.5212	15.6154	1.0960
36.6060	16.3077	1.1200
36.6908	15.5385	1.0933
36.7756	14.9231	1.0714
36.8604	15.0000	1.0742
36.9452	14.5385	1.0575
37.0300	13.4615	1.0176
37.1148	13.8462	1.0320
37.1996	14.0000	1.0377
37.2844	14.0769	1.0406
37.3692	13.5385	1.0205
37.4540	14.5385	1.0575
37.5388	14.5385	1.0575
37.6236	15.4615	1.0906
37.7084	12.6923	0.9881
37.7932	14.4615	1.0547
37.8780	14.6154	1.0603
37.9628	15.6154	1.0960
38.0476	16.1538	1.1147
38.1324	14.1538	1.0434
38.2172	15.9231	1.1067
38.3020	16.5185	1.1062
38.3867	16.5185	1.1062
38.4715	17.4815	1.1379
38.5563	17.5556	1.1404
38.6411	22.5926	1.2936
38.7259	19.7778	1.2104
38.8107	23.2593	1.3126
38.8955	25.5556	1.3759
38.9803	29.2593	1.4722
39.0651	35.0000	1.5811
39.1499	47.6429	1.8447
39.2347	63.9286	2.1369
39.3195	80.1429	2.3926
39.4043	94.5000	2.5981
39.4891	115.7143	2.8749
39.5739	147.7143	3.2482
39.6587	181.8571	3.6041
39.7435	218.6429	3.9519
39.8283	222.7857	3.9891
39.9131	197.7143	3.7580
39.9979	132.0000	3.0706
40.0827	85.9286	2.4774
40.1675	54.2143	1.9679
40.2523	37.5000	1.6366
40.3371	30.4286	1.4743
40.4219	27.3571	1.3979
40.5067	21.0714	1.2268
40.5915	18.9286	1.1628
40.6763	19.6429	1.1845
40.7611	18.0714	1.1361
40.8459	16.7857	1.0950
40.9306	15.6429	1.0570
41.0154	14.3571	1.0127
41.1002	15.0000	1.0351
41.1850	13.6429	0.9872
41.2698	14.5714	1.0202
41.3546	14.1429	1.0051
41.4394	12.0000	0.9258
41.5242	14.4286	1.0152
41.6090	12.3571	0.9395
41.6938	12.4286	0.9422
41.7786	14.5000	1.0177
41.8634	12.8571	0.9583
41.9482	15.2143	1.0425
42.0330	15.2143	1.0425
42.1178	14.0000	1.0000
42.2026	14.1429	1.0051
42.2874	14.1429	1.0051
42.3722	16.1429	1.0738
42.4570	18.2143	1.1406
42.5418	20.0714	1.1974
42.6266	24.4138	1.2976
42.7114	29.8621	1.4351
42.7962	24.4828	1.2994
42.8810	18.4828	1.1290
42.9658	14.7586	1.0089
43.0506	13.6552	0.9704
43.1354	13.5172	0.9655
43.2202	14.6207	1.0042
43.3050	12.1379	0.9149
43.3898	14.6897	1.0065
43.4745	13.2000	0.9381
43.5593	17.9333	1.0934
43.6441	16.2667	1.0414
43.7289	14.3333	0.9775
43.8137	13.0000	0.9309
43.8985	13.0000	0.9309
43.9833	10.8667	0.8511
44.0681	11.4000	0.8718
44.1529	12.4667	0.9117
44.2377	12.4667	0.9117
44.3225	10.6000	0.8406
44.4073	12.7333	0.9214
44.4921	13.1333	0.9357
44.5769	12.0667	0.8969
44.6617	12.0667	0.8969
44.7465	12.2667	0.9043
44.8313	10.6667	0.8433
44.9161	10.6667	0.8433
45.0009	10.2000	0.8246
45.0857	10.9333	0.8537
45.1705	9.2667	0.7860
45.2553	10.0000	0.8165
45.3401	11.1333	0.8615
45.4249	9.9333	0.8138
45.5097	10.6000	0.8406
45.5945	10.8667	0.8511
45.6793	8.7333	0.7630
45.7641	8.4000	0.7483
45.8489	12.2000	0.9018
45.9337	9.4000	0.7916
46.0184	10.6000	0.8406
46.1032	9.0000	0.7746
46.1880	9.9333	0.8138
46.2728	10.6000	0.8406
46.3576	9.6667	0.8028
46.4424	10.6667	0.8433
46.5272	10.8667	0.8511
46.6120	8.6452	0.7468
46.6968	9.7419	0.7928
46.7816	8.9677	0.7606
46.8664	10.3226	0.8161
46.9512	9.3548	0.7769
47.0360	9.4194	0.7796
47.1208	9.9355	0.8006
47.2056	9.2903	0.7742
47.2904	9.5484	0.7849
47.3752	9.1613	0.7688
47.4600	8.4375	0.7262
47.5448	8.1875	0.7153
47.6296	8.5625	0.7315
47.7144	8.6875	0.7369
47.7992	8.8125	0.7421
47.8840	8.8750	0.7448
47.9688	9.8750	0.7856
48.0536	8.8125	0.7421
48.1384	9.2500	0.7603
48.2232	9.3125	0.7629
48.3080	9.0000	0.7500
48.3928	9.6875	0.7781
48.4776	8.4375	0.7262
48.5624	9.1250	0.7552
48.6471	8.0625	0.7099
48.7319	8.7500	0.7395
48.8167	7.0625	0.6644
48.9015	8.3125	0.7208
48.9863	8.4375	0.7262
49.0711	7.6875	0.6932
49.1559	7.6875	0.6932
49.2407	8.2500	0.7181
49.3255	9.6250	0.7756
49.4103	8.5000	0.7289
49.4951	7.6875	0.6932
49.5799	9.1875	0.7578
49.6647	8.9375	0.7474
49.7495	7.8750	0.7016
49.8343	8.8125	0.7421
49.9191	8.1875	0.7153
50.0039	6.8750	0.6555
50.0887	8.6250	0.7342
50.1735	8.0000	0.7071
50.2583	8.3125	0.7208
50.3431	9.2500	0.7603
50.4279	9.0000	0.7500
50.5127	7.4375	0.6818
50.5975	7.0303	0.6527
50.6823	8.2424	0.7068
50.7671	7.6970	0.6830
50.8519	8.1818	0.7042
50.9367	8.4242	0.7145
51.0215	8.2424	0.7068
51.1063	8.4848	0.7171
51.1910	8.7879	0.7298
51.2758	8.7273	0.7273
51.3606	8.1212	0.7016
51.4454	7.3333	0.6667
51.5302	8.2353	0.6960
51.6150	7.5882	0.6681
51.6998	7.4706	0.6629
51.7846	7.1176	0.6471
51.8694	8.5882	0.7108
51.9542	8.4118	0.7034
52.0390	8.3529	0.7010
52.1238	7.9412	0.6835
52.2086	8.7059	0.7156
52.2934	7.7059	0.6733
52.3782	7.1176	0.6471
52.4630	7.4706	0.6629
52.5478	7.9412	0.6835
52.6326	7.7647	0.6758
52.7174	8.8824	0.7228
52.8022	7.8235	0.6784
52.8870	7.7059	0.6733
52.9718	7.7059	0.6733
53.0566	7.5294	0.6655
53.1414	8.6471	0.7132
53.2262	8.9412	0.7252
53.3110	8.1765	0.6935
53.3958	8.2353	0.6960
53.4806	7.8235	0.6784
53.5654	6.8235	0.6335
53.6502	6.8235	0.6335
53.7349	6.7059	0.6281
53.8197	7.4706	0.6629
53.9045	8.2941	0.6985
53.9893	7.2941	0.6550
54.0741	6.8235	0.6335
54.1589	6.8235	0.6335
54.2437	7.1765	0.6497
54.3285	7.8235	0.6784
54.4133	8.2941	0.6985
54.4981	6.5294	0.6197
54.5829	7.4286	0.6515
54.6677	8.0000	0.6761
54.7525	9.1429	0.7228
54.8373	7.6571	0.6615
54.9221	5.9429	0.5827
55.0069	8.4571	0.6952
55.0917	7.8857	0.6713
55.1765	6.9143	0.6286
55.2613	7.8286	0.6688
55.3461	8.1143	0.6809
55.4309	9.2000	0.7251
55.5157	8.4444	0.6849
55.6005	8.2222	0.6759
55.6853	7.6111	0.6503
55.7701	8.5000	0.6872
55.8549	9.1667	0.7136
55.9397	7.7222	0.6550
56.0245	8.2778	0.6781
56.1093	6.9444	0.6211
56.1941	8.6667	0.6939
56.2788	9.5000	0.7265
56.3636	10.7222	0.7718
56.4484	8.6111	0.6917
56.5332	9.2778	0.7179
56.6180	9.1667	0.7136
56.7028	10.5556	0.7658
56.7876	11.6667	0.8051
56.8724	11.9444	0.8146
56.9572	12.9444	0.8480
57.0420	14.0000	0.8819
57.1268	17.2778	0.9797
57.2116	19.1111	1.0304
57.2964	21.6111	1.0957
57.3812	24.8333	1.1746
57.4660	29.1111	1.2717
57.5508	26.2778	1.2083
57.6356	27.7778	1.2423
57.7204	24.5000	1.1667
57.8052	20.5000	1.0672
57.8900	15.4444	0.9263
57.9748	14.7222	0.9044
58.0596	11.1111	0.7857
58.1444	8.3889	0.6827
58.2292	9.8333	0.7391
58.3140	8.5556	0.6894
58.3988	8.9444	0.7049
58.4836	7.4595	0.6350
58.5684	8.7568	0.6880
58.6532	8.4865	0.6773
58.7380	7.8919	0.6531
58.8227	7.5135	0.6373
58.9075	8.0541	0.6598
58.9923	8.4324	0.6751
59.0771	7.7838	0.6486
59.1619	8.5946	0.6816
59.2467	7.1351	0.6210
59.3315	7.3514	0.6304
59.4163	7.3514	0.6304
59.5011	8.4324	0.6751
59.5859	6.4737	0.5837
59.6707	7.6842	0.6359
59.7555	7.9474	0.6467
59.8403	7.5263	0.6294
59.9251	7.7895	0.6403
60.0099	6.7895	0.5978
60.0947	7.1053	0.6115
60.1795	7.9474	0.6467
60.2643	7.6842	0.6359
60.3491	6.3684	0.5789
60.4339	7.5789	0.6316
60.5187	8.1579	0.6553
60.6035	7.5789	0.6316
60.6883	8.2105	0.6574
60.7731	9.0000	0.6882
60.8579	11.3158	0.7717
60.9427	10.0526	0.7274
61.0275	9.8947	0.7216
61.1123	9.6316	0.7120
61.1971	7.7895	0.6403
61.2819	8.0526	0.6510
61.3667	7.1579	0.6138
61.4514	8.2632	0.6595
61.5362	7.2105	0.6160
61.6210	8.3684	0.6637
61.7058	6.2632	0.5741
61.7906	7.1579	0.6138
61.8754	6.3158	0.5766
61.9602	7.6842	0.6359
62.0450	8.0000	0.6489
62.1298	8.0000	0.6489
62.2146	7.2105	0.6160
62.2994	7.7368	0.6381
62.3842	7.0526	0.6093
62.4690	6.9744	0.5980
62.5538	7.7436	0.6302
62.6386	6.9744	0.5980
62.7234	6.6667	0.5847
62.8082	5.8974	0.5499
62.8930	8.4103	0.6567
62.9778	6.3590	0.5711
63.0626	7.2308	0.6089
63.1474	6.6154	0.5825
63.2322	7.1282	0.6046
63.3170	6.2051	0.5641
63.4018	6.7692	0.5892
63.4866	6.4615	0.5756
63.5714	6.2000	0.5568
63.6562	8.0976	0.6285
63.7410	6.3415	0.5562
63.8258	8.2927	0.6360
63.9106	7.6098	0.6093
63.9953	7.0732	0.5874
64.0801	8.2927	0.6360
64.1649	6.6341	0.5689
64.2497	7.1220	0.5894
64.3345	6.6341	0.5689
64.4193	6.3415	0.5562
64.5041	7.9024	0.6209
64.5889	7.4146	0.6014
64.6737	7.4146	0.6014
64.7585	8.0488	0.6266
64.8433	7.3953	0.5865
64.9281	7.4884	0.5902
65.0129	7.3488	0.5846
65.0977	8.1860	0.6170
65.1825	7.5814	0.5938
65.2673	7.4884	0.5902
65.3521	7.7674	0.6011
65.4369	7.0698	0.5734
65.5217	7.9535	0.6082
65.6065	6.6047	0.5543
65.6913	8.2326	0.6188
65.7761	8.3256	0.6223
65.8609	7.3488	0.5846
65.9457	7.7209	0.5993
66.0305	6.8444	0.5515
66.1153	8.0889	0.5996
66.2001	7.0667	0.5604
66.2849	7.1111	0.5622
66.3697	6.8000	0.5497
66.4545	7.0667	0.5604
66.5392	7.3778	0.5726
66.6240	7.1556	0.5639
66.7088	7.5556	0.5795
66.7936	7.6889	0.5846
66.8784	8.9333	0.6301
66.9632	8.0000	0.5963
67.0480	8.1333	0.6012
67.1328	10.1778	0.6726
67.2176	10.6522	0.6805
67.3024	11.0213	0.6848
67.3872	10.3404	0.6633
67.4720	9.7021	0.6425
67.5568	10.5532	0.6701
67.6416	7.3191	0.5581
67.7264	7.8723	0.5788
67.8112	7.1064	0.5499
67.8960	7.2766	0.5565
67.9808	7.0213	0.5466
68.0656	6.2979	0.5177
68.1504	7.4468	0.5629
68.2352	7.8723	0.5788
68.3200	7.2917	0.5512
68.4048	7.9167	0.5743
68.4896	7.5102	0.5537
68.5744	7.5510	0.5552
68.6592	7.7551	0.5626
68.7440	8.0408	0.5729
68.8288	9.0204	0.6068
68.9136	7.0612	0.5369
68.9984	7.4694	0.5522
69.0831	8.1224	0.5758
69.1679	8.4490	0.5872
69.2527	8.4490	0.5872
69.3375	8.4490	0.5872
69.4223	9.5102	0.6230
69.5071	8.2400	0.5741
69.5919	11.4800	0.6776
69.6767	10.4400	0.6462
69.7615	9.7255	0.6176
69.8463	10.3922	0.6384
69.9311	9.1765	0.5999
70.0159	9.6471	0.6151
70.1007	7.9216	0.5574
70.1855	8.3529	0.5723
70.2703	8.5098	0.5777
70.3551	8.8627	0.5895
70.4399	8.5098	0.5777
70.5247	8.9020	0.5908
70.6095	8.2745	0.5696
70.6943	10.0385	0.6214
70.7791	9.3077	0.5983
70.8639	10.3077	0.6296
70.9487	10.9434	0.6426
71.0335	11.0189	0.6448
71.1183	11.2075	0.6503
71.2031	12.9057	0.6979
71.2879	13.2075	0.7060
71.3727	16.6415	0.7925
71.4575	16.0377	0.7779
71.5423	18.4151	0.8336
71.6270	22.4528	0.9205
71.7118	26.9057	1.0076
71.7966	29.0566	1.0471
71.8814	32.7037	1.1006
71.9662	37.8148	1.1834
72.0510	41.6296	1.2417
72.1358	45.4444	1.2974
72.2206	48.2545	1.3247
72.3054	51.4545	1.3679
72.3902	54.2545	1.4046
72.4750	51.9636	1.3746
72.5598	47.8545	1.3192
72.6446	39.8909	1.2044
72.7294	31.6364	1.0726
72.8142	24.7636	0.9489
72.8990	21.1273	0.8765
72.9838	17.2364	0.7917
73.0686	15.7500	0.7500
73.1534	15.0357	0.7328
73.2382	15.0000	0.7319
73.3230	10.7500	0.6196
73.4078	10.9825	0.6208
73.4926	10.2456	0.5996
73.5774	9.1228	0.5658
73.6622	9.7544	0.5850
73.7470	8.5614	0.5481
73.8318	8.0000	0.5298
73.9166	7.7544	0.5216
74.0014	8.3860	0.5424
74.0862	8.0000	0.5298
74.1709	8.3448	0.5364
74.2557	8.2069	0.5320
74.3405	7.9310	0.5230
74.4253	7.6207	0.5126
74.5101	8.1034	0.5286
74.5949	8.4138	0.5386
74.6797	8.8136	0.5466
74.7645	8.3051	0.5306
74.8493	7.9661	0.5197
74.9341	7.8305	0.5152
75.0189	7.6949	0.5107
75.1037	7.7288	0.5119
75.1885	7.4915	0.5039
75.2733	7.5932	0.5073
75.3581	7.7667	0.5088
75.4429	8.4000	0.5292
75.5277	7.6333	0.5044
75.6125	7.2000	0.4899
75.6973	8.2667	0.5249
75.7821	7.6333	0.5044
75.8669	7.2787	0.4885
75.9517	7.7705	0.5047
76.0365	8.3934	0.5246
76.1213	8.2623	0.5205
76.2061	7.6393	0.5005
76.2909	8.7213	0.5347
76.3757	7.7377	0.5037
76.4605	8.2295	0.5194
76.5453	8.3871	0.5201
76.6301	8.3548	0.5191
76.7149	7.9032	0.5049
76.7996	8.5161	0.5241
76.8844	8.7097	0.5301
76.9692	8.7742	0.5320
77.0540	8.9355	0.5369
77.1388	8.4127	0.5168
77.2236	7.5556	0.4898
77.3084	7.2381	0.4794
77.3932	7.6825	0.4939
77.4780	7.7460	0.4959
77.5628	6.7937	0.4644
77.6476	7.5556	0.4898
77.7324	7.8125	0.4941
77.8172	7.7813	0.4931
77.9020	7.4063	0.4811
77.9868	7.5938	0.4871
78.0716	7.3438	0.4791
78.1564	7.9688	0.4990
78.2412	8.5000	0.5154
78.3260	6.9231	0.4615
78.4108	7.7538	0.4884
78.4956	7.2923	0.4737
78.5804	8.6154	0.5149
78.6652	7.3538	0.4757
78.7500	7.5385	0.4816
78.8348	8.5231	0.5121
78.9196	7.2121	0.4675
79.0044	8.0909	0.4952
79.0892	8.2121	0.4989
79.1740	6.7273	0.4515
79.2588	8.6970	0.5134
79.3435	8.1818	0.4979
79.4283	6.4545	0.4423
79.5131	7.5758	0.4791
79.5979	6.9552	0.4557
79.6827	8.0000	0.4887
79.7675	6.7164	0.4478
79.8523	6.3582	0.4357
79.9371	7.9403	0.4869
80.0219	7.3731	0.4691
80.1067	7.6471	0.4743
80.1915	6.6176	0.4412
80.2763	8.2941	0.4939
80.3611	7.7353	0.4770
80.4459	7.9706	0.4842
80.5307	7.8529	0.4806
80.6155	8.7647	0.5077
80.7003	9.1471	0.5187
80.7851	8.0290	0.4824
80.8699	7.6232	0.4701
80.9547	8.2899	0.4902
81.0395	8.9275	0.5087
81.1243	8.3188	0.4910
81.2091	6.5714	0.4333
81.2939	8.3429	0.4882
81.3787	7.6857	0.4686
81.4635	8.2286	0.4849
81.5483	7.4571	0.4616
81.6331	8.1143	0.4815
81.7179	7.6571	0.4677
81.8027	8.5714	0.4949
81.8874	8.0000	0.4781
81.9722	8.6000	0.4957
82.0570	8.1690	0.4797
82.1418	7.9155	0.4722
82.2266	7.4085	0.4568
82.3114	8.4507	0.4879
82.3962	8.1111	0.4747
82.4810	8.3056	0.4803
82.5658	8.2500	0.4787
82.6506	8.5000	0.4859
82.7354	9.5833	0.5159
82.8202	8.2778	0.4795
82.9050	8.5833	0.4883
82.9898	9.0278	0.5008
83.0746	8.9722	0.4992
83.1594	7.8333	0.4665
83.2442	8.9589	0.4954
83.3290	8.0000	0.4682
83.4138	9.1507	0.5007
83.4986	10.4384	0.5348
83.5834	9.4595	0.5056
83.6682	8.5946	0.4820
83.7530	9.4324	0.5049
83.8378	9.3514	0.5027
83.9226	9.1892	0.4984
84.0074	10.8378	0.5412
84.0922	10.3784	0.5296
84.1770	10.8649	0.5419
84.2618	11.7297	0.5630
84.3466	11.5135	0.5578
84.4313	11.8378	0.5656
84.5161	12.6133	0.5800
84.6009	11.9200	0.5638
84.6857	11.7867	0.5606
84.7705	11.9737	0.5613
84.8553	12.6842	0.5777
84.9401	11.9737	0.5613
85.0249	12.6579	0.5772
85.1097	13.5000	0.5960
85.1945	13.8684	0.6041
85.2793	14.7368	0.6227
85.3641	15.4474	0.6376
85.4489	16.8947	0.6668
85.5337	16.8684	0.6663
85.6185	17.8158	0.6847
85.7033	19.0909	0.7042
85.7881	19.5844	0.7132
85.8729	18.8312	0.6994
85.9577	19.9231	0.7147
86.0425	19.8974	0.7143
86.1273	18.9231	0.6966
86.2121	19.1795	0.7013
86.2969	16.1795	0.6441
86.3817	15.8462	0.6374
86.4665	14.9231	0.6186
86.5513	12.0513	0.5559
86.6361	13.3077	0.5841
86.7209	12.5641	0.5676
86.8057	12.3333	0.5624
86.8905	10.9114	0.5256
86.9752	11.4177	0.5376
87.0600	11.6500	0.5397
87.1448	11.2000	0.5292
87.2296	11.9500	0.5466
87.3144	10.8250	0.5202
87.3992	10.6000	0.5148
87.4840	12.0250	0.5483
87.5688	10.8750	0.5214
87.6536	12.1000	0.5500
87.7384	11.7000	0.5408
87.8232	10.8500	0.5208
87.9080	10.6500	0.5160
87.9928	11.3250	0.5321
88.0776	11.0500	0.5256
88.1624	11.0123	0.5214
88.2472	11.6098	0.5321
88.3320	10.7561	0.5122
88.4168	10.9756	0.5174
88.5016	11.5366	0.5305
88.5864	11.9268	0.5393
88.6712	11.6098	0.5321
88.7560	11.0000	0.5180
88.8408	11.1463	0.5214
88.9256	11.7561	0.5355
89.0104	11.4634	0.5288
89.0952	11.8049	0.5366
89.1800	11.4390	0.5282
89.2648	12.2927	0.5476
89.3496	11.2771	0.5213
89.4344	12.8333	0.5528
89.5192	12.1905	0.5387
89.6039	11.5000	0.5233
89.6887	12.8095	0.5523
89.7735	13.1429	0.5594
89.8583	13.9048	0.5754
89.9431	12.8810	0.5538
90.0279	14.0238	0.5778
90.1127	12.8810	0.5538
90.1975	13.5476	0.5679
90.2823	13.3333	0.5634
90.3671	13.5714	0.5684
90.4519	12.3095	0.5414
90.5367	13.1905	0.5604
90.6215	12.2558	0.5339
90.7063	12.0930	0.5303
90.7911	13.6279	0.5630
90.8759	13.1163	0.5523
90.9607	13.4186	0.5586
91.0455	13.3953	0.5581
91.1303	12.5116	0.5394
91.2151	13.6279	0.5630
91.2999	12.3488	0.5359
91.3847	13.3256	0.5567
91.4695	13.1628	0.5533
91.5543	12.9767	0.5493
91.6391	13.0465	0.5508
91.7239	13.4651	0.5596
91.8087	13.7955	0.5599
91.8935	13.2045	0.5478
91.9783	13.9773	0.5636
92.0631	13.5000	0.5539
92.1478	12.6818	0.5369
92.2326	13.9773	0.5636
92.3174	12.9091	0.5417
92.4022	13.4773	0.5534
92.4870	13.2045	0.5478
92.5718	13.8864	0.5618
92.6566	13.5909	0.5558
92.7414	14.7045	0.5781
92.8262	15.2045	0.5878
92.9110	14.7727	0.5794
92.9958	15.9551	0.5988
93.0806	14.5778	0.5692
93.1654	14.9333	0.5761
93.2502	14.4667	0.5670
93.3350	14.2222	0.5622
93.4198	15.7111	0.5909
93.5046	15.4222	0.5854
93.5894	15.6000	0.5888
93.6742	15.0222	0.5778
93.7590	14.3111	0.5639
93.8438	15.4222	0.5854
93.9286	15.0222	0.5778
94.0134	14.5111	0.5679
94.0982	15.5165	0.5840
94.1830	14.2637	0.5599
94.2678	15.7174	0.5845
94.3526	15.4783	0.5801
94.4374	14.7609	0.5665
94.5222	15.6957	0.5841
94.6070	14.9783	0.5706
94.6917	15.6739	0.5837
94.7765	14.7391	0.5661
94.8613	16.0000	0.5898
94.9461	14.7174	0.5656
95.0309	15.3261	0.5772
95.1157	14.5217	0.5619
95.2005	16.1304	0.5922
95.2853	16.4086	0.5940
95.3701	15.8710	0.5842
95.4549	16.3011	0.5921
95.5397	16.2553	0.5881
95.6245	17.0000	0.6014
95.7093	15.4043	0.5725
95.7941	16.2553	0.5881
95.8789	17.5745	0.6115
95.9637	15.8723	0.5811
96.0485	15.2340	0.5693
96.1333	15.6596	0.5772
96.2181	16.4255	0.5912
96.3029	15.7872	0.5796
96.3877	17.4255	0.6089
96.4725	16.8211	0.5951
96.5573	15.9368	0.5792
96.6421	15.7053	0.5750
96.7269	16.6042	0.5881
96.8117	17.1667	0.5980
96.8965	16.9792	0.5948
96.9813	17.5208	0.6042
97.0661	15.9375	0.5762
97.1509	16.8542	0.5926
97.2356	17.6458	0.6063
97.3204	18.4375	0.6198
97.4052	18.0625	0.6134
97.4900	17.2500	0.5995
97.5748	17.9583	0.6117
97.6596	17.3608	0.5983
97.7444	18.1649	0.6120
97.8292	18.3299	0.6148
97.9140	19.4845	0.6338
97.9988	19.0816	0.6240
98.0836	20.3061	0.6437
98.1684	18.3469	0.6119
98.2532	21.0816	0.6559
98.3380	21.7551	0.6663
98.4228	22.4286	0.6766
98.5076	21.3061	0.6594
98.5924	22.3265	0.6750
98.6772	22.6939	0.6805
98.7620	24.8776	0.7125
98.8468	24.4490	0.7064
98.9316	24.3061	0.7043
99.0164	25.1919	0.7134
99.1012	25.0707	0.7117
99.1860	25.0200	0.7074
99.2708	26.2600	0.7247
99.3556	27.0000	0.7348
99.4404	26.9800	0.7346
99.5252	26.6000	0.7294
99.6100	25.5400	0.7147
99.6948	25.1600	0.7094
99.7795	23.3000	0.6826
99.8643	21.6400	0.6579
99.9491	21.4800	0.6554
100.0339	19.0000	0.6164
100.1187	18.8200	0.6135
100.2035	19.9600	0.6318
100.2883	19.7400	0.6283
100.3731	17.9000	0.5983
100.4579	17.9804	0.5938
100.5427	18.6863	0.6053
100.6275	17.9412	0.5931
100.7123	18.9804	0.6101
100.7971	17.2549	0.5817
100.8819	18.0000	0.5941
100.9667	17.9608	0.5934
101.0515	18.1765	0.5970
101.1363	18.0392	0.5947
101.2211	17.4314	0.5846
101.3059	17.4510	0.5850
101.3907	19.2157	0.6138
101.4755	19.5294	0.6188
101.5603	18.6667	0.6050
101.6451	18.7255	0.6059
101.7299	19.4706	0.6179
101.8147	17.7059	0.5892
101.8995	18.5000	0.5965
101.9843	18.5385	0.5971
102.0691	18.7115	0.5999
102.1539	18.5192	0.5968
102.2387	19.4423	0.6115
102.3234	19.6538	0.6148
102.4082	18.8077	0.6014
102.4930	19.1154	0.6063
102.5778	18.9615	0.6039
102.6626	19.0385	0.6051
102.7474	19.0385	0.6051
102.8322	19.8077	0.6172
102.9170	19.0962	0.6060
103.0018	19.3269	0.6096
103.0866	19.4231	0.6112
103.1714	17.5000	0.5801
103.2562	18.4952	0.5935
103.3410	18.5849	0.5922
103.4258	18.7170	0.5943
103.5106	18.4717	0.5904
103.5954	18.6226	0.5928
103.6802	18.4340	0.5898
103.7650	19.0943	0.6002
103.8498	18.4906	0.5907
103.9346	18.1321	0.5849
104.0194	17.9623	0.5822
104.1042	18.6038	0.5925
104.1890	17.4340	0.5735
104.2738	18.6981	0.5940
104.3586	17.5660	0.5757
104.4434	18.7170	0.5943
104.5282	17.4340	0.5735
104.6130	18.3962	0.5892
104.6978	18.2056	0.5833
104.7826	17.2897	0.5685
104.8674	18.1667	0.5800
104.9521	18.4444	0.5844
105.0369	18.5556	0.5862
105.1217	19.1111	0.5949
105.2065	18.3519	0.5830
105.2913	18.1296	0.5794
105.3761	17.6852	0.5723
105.4609	18.2778	0.5818
105.5457	17.5556	0.5702
105.6305	18.9259	0.5920
105.7153	17.7037	0.5726
105.8001	18.9815	0.5929
105.8849	17.8333	0.5747
105.9697	17.4815	0.5690
106.0545	19.0370	0.5937
106.1393	18.8807	0.5886
106.2241	18.3486	0.5802
106.3089	18.8909	0.5861
106.3937	17.7091	0.5674
106.4785	17.5455	0.5648
106.5633	18.5818	0.5812
106.6481	19.6364	0.5975
106.7329	19.7455	0.5992
106.8177	18.4545	0.5793
106.9025	19.1455	0.5900
106.9873	19.1818	0.5906
107.0721	18.3091	0.5770
107.1569	19.3455	0.5931
107.2417	18.9273	0.5866
107.3265	17.0727	0.5571
107.4113	16.6545	0.5503
107.4960	18.1081	0.5712
107.5808	17.5856	0.5629
107.6656	19.0090	0.5852
107.7504	18.4643	0.5742
107.8352	18.5357	0.5753
107.9200	18.0536	0.5678
108.0048	17.4107	0.5576
108.0896	17.5536	0.5599
108.1744	18.2321	0.5706
108.2592	19.1250	0.5844
108.3440	17.4821	0.5587
108.4288	18.8036	0.5795
108.5136	17.5893	0.5604
108.5984	18.2143	0.5703
108.6832	18.6250	0.5767
108.7680	18.1835	0.5776
108.8528	19.2453	0.6026
108.9376	19.2039	0.6106
109.0224	19.3200	0.6216
109.1072	18.4742	0.6172
109.1920	18.5745	0.6287
109.2768	19.5000	0.6511
109.3616	18.8764	0.6513
109.4464	19.6744	0.6764
109.5312	19.4458	0.6845
109.6160	19.8500	0.7045
109.7008	20.1039	0.7226
109.7856	19.6486	0.7287
109.8704	19.2394	0.7362
109.9552	18.8824	0.7452
109.9834	18.5672	0.7445