File: XRD/Homogenization/7_W0.35Ta0.40Cr0.25_SPS_HT1800C_8h_txt.txt
1.540593
20.0707	74.5000	3.5237
20.1555	80.1667	3.6553
20.2403	75.8333	3.5551
20.3251	75.3333	3.5434
20.4099	67.5000	3.3541
20.4946	71.5000	3.4521
20.5794	73.5484	3.4442
20.6642	79.0323	3.5703
20.7490	72.2581	3.4139
20.8338	74.6774	3.4706
20.9186	65.1613	3.2419
21.0034	73.0645	3.4329
21.0882	74.5161	3.4668
21.1730	72.7419	3.4253
21.2578	64.5161	3.2258
21.3426	73.2258	3.4367
21.4274	63.0645	3.1893
21.5122	72.0313	3.3548
21.5970	67.9688	3.2589
21.6818	62.5000	3.1250
21.7666	66.4063	3.2212
21.8514	61.8750	3.1093
21.9362	68.2813	3.2663
22.0210	66.7188	3.2287
22.1058	65.3125	3.1945
22.1906	64.0625	3.1638
22.2754	57.6563	3.0015
22.3602	65.0000	3.1869
22.4450	61.5625	3.1015
22.5298	60.7813	3.0817
22.6146	61.5625	3.1015
22.6994	61.5625	3.1015
22.7842	63.2813	3.1445
22.8690	57.6471	2.9116
22.9538	60.0000	2.9704
23.0385	56.1765	2.8742
23.1233	62.5000	3.0317
23.2081	60.2941	2.9777
23.2929	52.1429	2.7293
23.3777	58.5714	2.8926
23.4625	62.5714	2.9898
23.5473	55.7143	2.8212
23.6321	54.7143	2.7958
23.7169	51.2857	2.7068
23.8017	56.4286	2.8392
23.8865	57.4286	2.8643
23.9713	55.8571	2.8248
24.0561	54.7143	2.7958
24.1409	53.5714	2.7664
24.2257	53.0000	2.7516
24.3105	49.8611	2.6316
24.3953	52.6389	2.7039
24.4801	52.9167	2.7110
24.5649	53.4722	2.7252
24.6497	51.7568	2.6446
24.7345	51.6216	2.6412
24.8193	52.9730	2.6755
24.9041	48.5135	2.5604
24.9889	49.0541	2.5747
25.0737	42.9730	2.4098
25.1585	48.5135	2.5604
25.2433	52.0270	2.6515
25.3281	43.9189	2.4362
25.4129	47.4324	2.5318
25.4977	45.8108	2.4881
25.5824	45.2703	2.4734
25.6672	51.2162	2.6308
25.7520	47.7027	2.5390
25.8368	49.8649	2.5959
25.9216	47.4324	2.5318
26.0064	43.8462	2.3709
26.0912	46.5385	2.4426
26.1760	48.9744	2.5057
26.2608	42.1795	2.3254
26.3456	44.7436	2.3951
26.4304	45.2564	2.4088
26.5152	46.6667	2.4460
26.6000	47.5641	2.4694
26.6848	45.1282	2.4053
26.7696	50.1282	2.5351
26.8544	44.1026	2.3779
26.9392	43.7179	2.3675
27.0240	45.6410	2.4190
27.1088	39.6250	2.2256
27.1936	43.6250	2.3352
27.2784	39.2500	2.2150
27.3632	41.2500	2.2707
27.4480	45.7500	2.3914
27.5328	42.6250	2.3083
27.6176	42.6250	2.3083
27.7024	42.0000	2.2913
27.7872	45.6250	2.3881
27.8720	38.3750	2.1902
27.9568	47.3750	2.4335
28.0416	42.0000	2.2913
28.1263	41.7500	2.2845
28.2111	45.5000	2.3848
28.2959	42.7500	2.3117
28.3807	42.1250	2.2947
28.4655	41.4286	2.2208
28.5503	39.2857	2.1626
28.6351	39.1667	2.1593
28.7199	37.0238	2.0994
28.8047	40.7143	2.2016
28.8895	36.3095	2.0791
28.9743	39.4048	2.1659
29.0591	37.8571	2.1229
29.1439	37.2619	2.1062
29.2287	38.3333	2.1362
29.3135	36.9048	2.0960
29.3983	38.8095	2.1495
29.4831	40.2381	2.1887
29.5679	33.4524	1.9956
29.6527	39.5238	2.1692
29.7375	37.6190	2.1162
29.8223	36.7857	2.0927
29.9071	38.6364	2.0954
29.9919	32.4444	1.8987
30.0767	36.3333	2.0092
30.1615	30.8889	1.8526
30.2463	38.0000	2.0548
30.3311	33.5556	1.9309
30.4159	34.7778	1.9658
30.5007	36.4444	2.0123
30.5855	39.2222	2.0876
30.6702	33.1111	1.9181
30.7550	32.6667	1.9052
30.8398	36.3333	2.0092
30.9246	35.4444	1.9845
31.0094	33.0000	1.9149
31.0942	34.1111	1.9468
31.1790	36.0000	2.0000
31.2638	32.7778	1.9084
31.3486	33.4043	1.8851
31.4334	32.6596	1.8640
31.5182	30.6383	1.8054
31.6030	32.6596	1.8640
31.6878	34.3617	1.9119
31.7726	30.5319	1.8022
31.8574	31.9149	1.8426
31.9422	30.4255	1.7991
32.0270	32.5532	1.8609
32.1118	32.3404	1.8549
32.1966	28.6170	1.7448
32.2814	31.4894	1.8303
32.3662	30.0000	1.7865
32.4510	31.7021	1.8365
32.5358	30.9574	1.8148
32.6206	32.6596	1.8640
32.7054	28.7755	1.7136
32.7902	29.0816	1.7226
32.8750	29.6939	1.7407
32.9598	33.0612	1.8367
33.0446	30.1020	1.7526
33.1294	28.8776	1.7166
33.2142	30.7143	1.7703
33.2989	29.0816	1.7226
33.3837	27.5510	1.6767
33.4685	28.8776	1.7166
33.5533	25.3061	1.6069
33.6381	28.6735	1.7105
33.7229	31.2245	1.7850
33.8077	26.3265	1.6390
33.8925	27.7551	1.6829
33.9773	27.2449	1.6674
34.0621	29.2000	1.7088
34.1469	28.4000	1.6852
34.2317	30.4000	1.7436
34.3165	27.4000	1.6553
34.4013	29.5000	1.7176
34.4861	28.9000	1.7000
34.5709	23.6000	1.5362
34.6557	28.5000	1.6882
34.7405	25.4000	1.5937
34.8253	29.0000	1.7029
34.9101	26.7000	1.6340
34.9949	29.9000	1.7292
35.0797	25.1000	1.5843
35.1645	28.7000	1.6941
35.2493	27.1000	1.6462
35.3341	23.7000	1.5395
35.4189	26.3462	1.5916
35.5037	24.5192	1.5355
35.5885	25.6731	1.5712
35.6733	23.0769	1.4896
35.7581	29.1346	1.6737
35.8428	25.9615	1.5800
35.9276	27.0192	1.6118
36.0124	24.9038	1.5474
36.0972	25.6731	1.5712
36.1820	25.5769	1.5682
36.2668	26.2500	1.5887
36.3516	26.6346	1.6003
36.4364	27.0192	1.6118
36.5212	25.0962	1.5534
36.6060	25.9615	1.5800
36.6908	25.0962	1.5534
36.7756	25.1852	1.5271
36.8604	24.4444	1.5045
36.9452	23.8182	1.4715
37.0300	25.0000	1.5076
37.1148	24.2727	1.4855
37.1996	22.6364	1.4345
37.2844	25.0000	1.5076
37.3692	28.3636	1.6058
37.4540	25.2727	1.5158
37.5388	24.0000	1.4771
37.6236	24.3636	1.4882
37.7084	24.8182	1.5021
37.7932	26.3636	1.5481
37.8780	26.3636	1.5481
37.9628	24.8182	1.5021
38.0476	26.1818	1.5428
38.1324	26.7273	1.5588
38.2172	27.4545	1.5798
38.3020	25.2632	1.4886
38.3867	29.4737	1.6079
38.4715	29.4737	1.6079
38.5563	29.7368	1.6151
38.6411	32.1053	1.6782
38.7259	30.2632	1.6293
38.8107	34.1228	1.7301
38.8955	37.4561	1.8126
38.9803	38.5088	1.8379
39.0651	45.0877	1.9887
39.1499	58.6842	2.2689
39.2347	69.2105	2.4640
39.3195	88.0702	2.7795
39.4043	119.2105	3.2337
39.4891	159.5614	3.7412
39.5739	232.1053	4.5122
39.6587	310.7018	5.2206
39.7435	374.9153	5.6367
39.8283	365.8475	5.5681
39.9131	291.5254	4.9705
39.9979	180.6780	3.9130
40.0827	127.3729	3.2855
40.1675	86.6949	2.7105
40.2523	66.1864	2.3683
40.3371	52.2881	2.1050
40.4219	44.8305	1.9492
40.5067	38.8136	1.8136
40.5915	36.9492	1.7695
40.6763	32.4576	1.6585
40.7611	28.4746	1.5534
40.8459	25.1667	1.4482
40.9306	28.7500	1.5478
41.0154	26.1667	1.4767
41.1002	24.6667	1.4337
41.1850	25.5000	1.4577
41.2698	23.5000	1.3994
41.3546	22.4167	1.3668
41.4394	23.5000	1.3994
41.5242	21.6667	1.3437
41.6090	23.4167	1.3969
41.6938	24.7500	1.4361
41.7786	21.0833	1.3255
41.8634	22.6667	1.3744
41.9482	23.5833	1.4019
42.0330	23.4167	1.3969
42.1178	22.0968	1.3349
42.2026	23.8710	1.3875
42.2874	21.5323	1.3178
42.3722	20.1613	1.2751
42.4570	20.0806	1.2726
42.5418	22.6613	1.3519
42.6266	22.6613	1.3519
42.7114	21.2097	1.3078
42.7962	21.1290	1.3054
42.8810	19.8387	1.2649
42.9658	21.8548	1.3276
43.0506	17.9032	1.2016
43.1354	21.2097	1.3078
43.2202	21.7742	1.3251
43.3050	22.0161	1.3325
43.3898	20.0000	1.2700
43.4745	19.1935	1.2441
43.5593	22.9839	1.3614
43.6441	18.3065	1.2150
43.7289	20.4032	1.2827
43.8137	19.4355	1.2519
43.8985	22.0313	1.3119
43.9833	19.2969	1.2278
44.0681	20.3125	1.2597
44.1529	18.2813	1.1951
44.2377	19.1406	1.2228
44.3225	17.8125	1.1797
44.4073	17.3438	1.1640
44.4921	19.3750	1.2303
44.5769	21.0938	1.2837
44.6617	19.2969	1.2278
44.7465	18.5938	1.2053
44.8313	20.6250	1.2694
44.9161	19.2188	1.2253
45.0009	18.2813	1.1951
45.0857	19.9219	1.2476
45.1705	18.6719	1.2078
45.2553	20.2344	1.2573
45.3401	16.3281	1.1294
45.4249	17.8906	1.1822
45.5097	19.6875	1.2402
45.5945	20.3906	1.2621
45.6793	19.6094	1.2377
45.7641	20.5469	1.2670
45.8489	16.3281	1.1294
45.9337	18.2031	1.1925
46.0184	17.2656	1.1614
46.1032	17.7344	1.1771
46.1880	19.4531	1.2328
46.2728	18.7500	1.2103
46.3576	17.8906	1.1822
46.4424	18.3594	1.1976
46.5272	17.1875	1.1588
46.6120	17.9688	1.1848
46.6968	17.4219	1.1667
46.7816	19.2188	1.2253
46.8664	16.7188	1.1429
46.9512	18.5938	1.2053
47.0360	16.1719	1.1240
47.1208	19.1406	1.2228
47.2056	16.0938	1.1213
47.2904	16.7969	1.1455
47.3752	17.1875	1.1588
47.4600	17.9688	1.1848
47.5448	16.2500	1.1267
47.6296	15.9375	1.1158
47.7144	16.8750	1.1482
47.7992	15.7813	1.1104
47.8840	17.2656	1.1614
47.9688	17.0313	1.1535
48.0536	14.3750	1.0597
48.1384	17.9688	1.1848
48.2232	15.5469	1.1021
48.3080	18.1250	1.1900
48.3928	17.8125	1.1797
48.4776	18.0469	1.1874
48.5624	16.9531	1.1509
48.6471	16.2500	1.1267
48.7319	17.4219	1.1667
48.8167	15.5469	1.1021
48.9015	14.0625	1.0482
48.9863	17.8906	1.1822
49.0711	14.6875	1.0712
49.1559	18.5156	1.2027
49.2407	18.2813	1.1951
49.3255	17.5000	1.1693
49.4103	16.7188	1.1429
49.4951	17.7344	1.1771
49.5799	18.5938	1.2053
49.6647	17.7344	1.1771
49.7495	15.3906	1.0965
49.8343	16.4844	1.1348
49.9191	17.4219	1.1667
50.0039	15.1563	1.0882
50.0887	15.7031	1.1076
50.1735	16.3281	1.1294
50.2583	15.8594	1.1131
50.3431	15.2344	1.0910
50.4279	17.9688	1.1848
50.5127	16.5625	1.1375
50.5975	17.8906	1.1822
50.6823	17.9688	1.1848
50.7671	17.0313	1.1535
50.8519	17.8906	1.1822
50.9367	16.8750	1.1482
51.0215	14.8438	1.0769
51.1063	15.0781	1.0853
51.1910	17.1875	1.1588
51.2758	20.2344	1.2573
51.3606	15.2344	1.0910
51.4454	16.3281	1.1294
51.5302	15.8594	1.1131
51.6150	16.0156	1.1186
51.6998	14.0625	1.0482
51.7846	15.7031	1.1076
51.8694	16.9531	1.1509
51.9542	17.7344	1.1771
52.0390	15.4688	1.0993
52.1238	16.0156	1.1186
52.2086	14.2969	1.0569
52.2934	19.7656	1.2427
52.3782	14.7656	1.0740
52.4630	15.3906	1.0965
52.5478	15.5469	1.1021
52.6326	16.8750	1.1482
52.7174	14.4531	1.0626
52.8022	18.2031	1.1925
52.8870	15.4688	1.0993
52.9718	14.9219	1.0797
53.0566	16.4063	1.1321
53.1414	17.5781	1.1719
53.2262	15.3906	1.0965
53.3110	15.0781	1.0853
53.3958	15.7031	1.1076
53.4806	14.6094	1.0683
53.5654	15.1563	1.0882
53.6502	16.5625	1.1375
53.7349	16.6406	1.1402
53.8197	15.8594	1.1131
53.9045	13.5156	1.0276
53.9893	16.8750	1.1482
54.0741	17.1094	1.1561
54.1589	15.0781	1.0853
54.2437	15.3125	1.0938
54.3285	17.4219	1.1667
54.4133	15.3125	1.0938
54.4981	16.9531	1.1509
54.5829	15.0000	1.0825
54.6677	17.8125	1.1797
54.7525	17.4219	1.1667
54.8373	14.2969	1.0569
54.9221	16.7969	1.1455
55.0069	14.7656	1.0740
55.0917	19.4531	1.2328
55.1765	17.0313	1.1535
55.2613	16.7188	1.1429
55.3461	16.4063	1.1321
55.4309	16.3281	1.1294
55.5157	17.5000	1.1693
55.6005	19.0625	1.2204
55.6853	16.5625	1.1375
55.7701	18.5156	1.2027
55.8549	17.2656	1.1614
55.9397	19.3750	1.2303
56.0245	18.4375	1.2002
56.1093	18.7500	1.2103
56.1941	18.9063	1.2153
56.2788	19.2969	1.2278
56.3636	20.2344	1.2573
56.4484	21.5625	1.2979
56.5332	21.2500	1.2885
56.6180	26.9531	1.4511
56.7028	25.6250	1.4149
56.7876	28.5938	1.4946
56.8724	36.2500	1.6829
56.9572	39.3750	1.7539
57.0420	53.5156	2.0447
57.1268	59.2188	2.1509
57.2116	68.2813	2.3096
57.2964	79.2188	2.4878
57.3812	92.6563	2.6905
57.4660	100.1563	2.7973
57.5508	104.2188	2.8534
57.6356	96.9531	2.7522
57.7204	85.3906	2.5829
57.8052	60.6250	2.1763
57.8900	41.5625	1.8020
57.9748	39.6094	1.7591
58.0596	31.0938	1.5586
58.1444	27.1094	1.4553
58.2292	24.7656	1.3910
58.3140	23.4375	1.3532
58.3988	22.0313	1.3119
58.4836	22.0313	1.3119
58.5684	18.7500	1.2103
58.6532	20.8594	1.2766
58.7380	17.9688	1.1848
58.8227	17.0313	1.1535
58.9075	16.7188	1.1429
58.9923	17.1094	1.1561
59.0771	16.3281	1.1294
59.1619	15.8594	1.1131
59.2467	16.3281	1.1294
59.3315	16.8750	1.1482
59.4163	16.4844	1.1348
59.5011	17.5781	1.1719
59.5859	17.5781	1.1719
59.6707	15.5469	1.1021
59.7555	15.8594	1.1131
59.8403	17.2656	1.1614
59.9251	16.9531	1.1509
60.0099	16.8750	1.1482
60.0947	17.1875	1.1588
60.1795	17.9688	1.1848
60.2643	18.9063	1.2153
60.3491	17.5000	1.1693
60.4339	16.1719	1.1240
60.5187	15.4688	1.0993
60.6035	18.1250	1.1900
60.6883	19.2969	1.2278
60.7731	15.4688	1.0993
60.8579	17.4219	1.1667
60.9427	16.1719	1.1240
61.0275	16.9531	1.1509
61.1123	17.1875	1.1588
61.1971	16.3281	1.1294
61.2819	16.2500	1.1267
61.3667	17.1094	1.1561
61.4514	17.7344	1.1771
61.5362	15.0000	1.0825
61.6210	16.9531	1.1509
61.7058	18.3594	1.1976
61.7906	16.4844	1.1348
61.8754	15.3125	1.0938
61.9602	14.2969	1.0569
62.0450	16.5625	1.1375
62.1298	14.2188	1.0540
62.2146	16.3281	1.1294
62.2994	16.2500	1.1267
62.3842	18.2031	1.1925
62.4690	15.8594	1.1131
62.5538	16.1719	1.1240
62.6386	15.6250	1.1049
62.7234	15.8594	1.1131
62.8082	14.6875	1.0712
62.8930	15.8594	1.1131
62.9778	15.0000	1.0825
63.0626	15.9375	1.1158
63.1474	15.0000	1.0825
63.2322	16.1538	1.1147
63.3170	16.7692	1.1358
63.4018	14.0769	1.0406
63.4866	17.7692	1.1691
63.5714	14.2308	1.0463
63.6562	15.0000	1.0742
63.7410	15.6154	1.0960
63.8258	15.5385	1.0933
63.9106	15.4615	1.0906
63.9953	17.0000	1.1435
64.0801	18.5385	1.1942
64.1649	17.3077	1.1538
64.2497	16.0000	1.1094
64.3345	16.0000	1.1094
64.4193	16.6154	1.1305
64.5041	18.1538	1.1817
64.5889	16.6154	1.1305
64.6737	15.2308	1.0824
64.7585	17.6923	1.1666
64.8433	15.9231	1.1067
64.9281	15.6923	1.0987
65.0129	17.5385	1.1615
65.0977	16.1194	1.0968
65.1825	15.0746	1.0606
65.2673	16.5672	1.1119
65.3521	15.5970	1.0789
65.4369	14.7794	1.0425
65.5217	16.1029	1.0881
65.6065	14.6324	1.0373
65.6913	15.5882	1.0706
65.7761	15.8824	1.0807
65.8609	15.9559	1.0832
65.9457	14.2647	1.0241
66.0305	16.3235	1.0956
66.1153	15.8824	1.0807
66.2001	14.3478	1.0197
66.2849	15.1449	1.0476
66.3697	14.1304	1.0119
66.4545	16.3043	1.0870
66.5392	14.9286	1.0326
66.6240	14.5000	1.0177
66.7088	17.1429	1.1066
66.7936	17.4286	1.1157
66.8784	15.7857	1.0619
66.9632	14.9286	1.0326
67.0480	17.7143	1.1249
67.1328	15.3571	1.0473
67.2176	16.7143	1.0926
67.3024	17.2143	1.1089
67.3872	17.2857	1.1112
67.4720	16.5714	1.0880
67.5568	13.8571	0.9949
67.6416	15.6944	1.0440
67.7264	15.5556	1.0393
67.8112	16.5278	1.0713
67.8960	15.9028	1.0509
67.9808	15.7639	1.0463
68.0656	15.6250	1.0417
68.1504	15.0694	1.0230
68.2352	13.8194	0.9796
68.3200	15.1389	1.0253
68.4048	15.4167	1.0347
68.4896	14.2361	0.9943
68.5744	17.8767	1.1065
68.6592	16.0274	1.0477
68.7440	15.2027	1.0135
68.8288	13.9865	0.9721
68.9136	17.2973	1.0811
68.9984	17.2297	1.0790
69.0831	16.5541	1.0576
69.1679	16.5541	1.0576
69.2527	16.8243	1.0662
69.3375	17.9054	1.0999
69.4223	16.1486	1.0446
69.5071	17.2297	1.0790
69.5919	15.6081	1.0269
69.6767	18.5333	1.1116
69.7615	18.5333	1.1116
69.8463	16.7333	1.0562
69.9311	19.6667	1.1450
70.0159	19.7333	1.1470
70.1007	20.2000	1.1605
70.1855	18.0000	1.0954
70.2703	18.4000	1.1075
70.3551	20.2000	1.1605
70.4399	18.8000	1.1195
70.5247	21.3333	1.1926
70.6095	24.5333	1.2789
70.6943	20.2667	1.1624
70.7791	21.0667	1.1851
70.8639	22.5974	1.2113
70.9487	23.5897	1.2297
71.0335	23.7821	1.2347
71.1183	28.3333	1.3477
71.2031	28.1410	1.3431
71.2879	33.3974	1.4632
71.3727	32.3077	1.4391
71.4575	42.1154	1.6431
71.5423	46.6026	1.7284
71.6270	59.2308	1.9485
71.7118	65.0000	2.0412
71.7966	76.7308	2.2178
71.8814	91.3462	2.4198
71.9662	104.8101	2.5756
72.0510	127.5625	2.8236
72.1358	141.4375	2.9732
72.2206	164.3750	3.2052
72.3054	166.6875	3.2277
72.3902	145.4375	3.0149
72.4750	124.3125	2.7874
72.5598	100.7500	2.5094
72.6446	76.5625	2.1875
72.7294	58.2500	1.9080
72.8142	48.6250	1.7433
72.8990	42.3750	1.6274
72.9838	33.7500	1.4524
73.0686	30.9375	1.3905
73.1534	29.3210	1.3453
73.2382	26.6049	1.2815
73.3230	24.7531	1.2361
73.4078	23.0247	1.1922
73.4926	22.0988	1.1680
73.5774	22.7778	1.1858
73.6622	21.8519	1.1614
73.7470	19.6914	1.1025
73.8318	17.9012	1.0512
73.9166	18.2716	1.0620
74.0014	20.3704	1.1214
74.0862	18.8272	1.0780
74.1709	18.1481	1.0584
74.2557	15.9036	0.9788
74.3405	19.5238	1.0780
74.4253	17.4405	1.0189
74.5101	17.4405	1.0189
74.5949	18.0357	1.0361
74.6797	18.4524	1.0480
74.7645	17.7976	1.0293
74.8493	17.7381	1.0275
74.9341	19.0476	1.0648
75.0189	17.9762	1.0344
75.1037	19.3452	1.0731
75.1885	17.0833	1.0084
75.2733	16.8824	0.9965
75.3581	17.2941	1.0086
75.4429	18.2353	1.0357
75.5277	17.6471	1.0189
75.6125	16.1176	0.9737
75.6973	17.5882	1.0172
75.7821	15.7647	0.9630
75.8669	16.8235	0.9948
75.9517	18.5294	1.0440
76.0365	17.5294	1.0155
76.1213	16.0000	0.9701
76.2061	16.0588	0.9719
76.2909	18.0000	1.0290
76.3757	16.6279	0.9832
76.4605	16.9186	0.9918
76.5453	15.0581	0.9357
76.6301	17.0455	0.9841
76.7149	16.5341	0.9692
76.7996	16.4773	0.9676
76.8844	15.5114	0.9388
76.9692	16.3068	0.9626
77.0540	16.5909	0.9709
77.1388	16.3068	0.9626
77.2236	16.9318	0.9808
77.3084	17.1591	0.9874
77.3932	16.5909	0.9709
77.4780	16.8539	0.9731
77.5628	15.4494	0.9316
77.6476	16.1798	0.9534
77.7324	16.7222	0.9639
77.8172	15.3889	0.9246
77.9020	16.5556	0.9590
77.9868	16.1667	0.9477
78.0716	16.2778	0.9510
78.1564	16.3333	0.9526
78.2412	16.3333	0.9526
78.3260	15.0556	0.9146
78.4108	17.8889	0.9969
78.4956	16.1667	0.9477
78.5804	15.6667	0.9329
78.6652	16.2222	0.9493
78.7500	16.1667	0.9477
78.8348	15.6111	0.9313
78.9196	17.0330	0.9674
79.0044	16.2637	0.9453
79.0892	16.6484	0.9564
79.1740	15.6593	0.9276
79.2588	15.8791	0.9341
79.3435	17.1429	0.9705
79.4283	16.4286	0.9501
79.5131	17.9670	0.9936
79.5979	16.0989	0.9405
79.6827	16.2366	0.9343
79.7675	15.0538	0.8996
79.8523	17.8495	0.9796
79.9371	17.0968	0.9587
80.0219	16.2903	0.9359
80.1067	16.4362	0.9350
80.1915	15.6915	0.9136
80.2763	17.1277	0.9545
80.3611	15.7447	0.9151
80.4459	15.4787	0.9074
80.5307	17.7660	0.9721
80.6155	16.2234	0.9289
80.7003	15.5319	0.9089
80.7851	16.5263	0.9326
80.8699	15.8947	0.9146
80.9547	14.3684	0.8696
81.0395	14.8421	0.8838
81.1243	16.8421	0.9415
81.2091	17.6842	0.9648
81.2939	16.1053	0.9207
81.3787	17.4737	0.9590
81.4635	16.0526	0.9192
81.5483	17.0526	0.9474
81.6331	19.1053	1.0028
81.7179	16.5263	0.9326
81.8027	16.6316	0.9356
81.8874	15.5208	0.8991
81.9722	16.1979	0.9185
82.0570	18.0208	0.9688
82.1418	15.6250	0.9021
82.2266	16.4583	0.9259
82.3114	15.6771	0.9036
82.3962	14.5918	0.8628
82.4810	16.3265	0.9127
82.5658	17.0408	0.9324
82.6506	17.0408	0.9324
82.7354	18.3163	0.9667
82.8202	18.4694	0.9707
82.9050	16.5306	0.9184
82.9898	17.3232	0.9354
83.0746	16.5657	0.9147
83.1594	18.7374	0.9728
83.2442	19.3939	0.9897
83.3290	16.5152	0.9133
83.4138	17.8788	0.9502
83.4986	17.1500	0.9260
83.5834	17.8500	0.9447
83.6682	17.6500	0.9394
83.7530	15.9000	0.8916
83.8378	17.5000	0.9354
83.9226	19.0000	0.9747
84.0074	17.5500	0.9367
84.0922	16.0500	0.8958
84.1770	18.8500	0.9708
84.2618	20.0000	1.0000
84.3466	19.4000	0.9849
84.4313	16.9000	0.9192
84.5161	20.9500	1.0235
84.6009	21.1500	1.0283
84.6857	21.6832	1.0361
84.7705	23.8119	1.0857
84.8553	24.7030	1.1059
84.9401	25.7426	1.1289
85.0249	25.7921	1.1300
85.1097	28.3663	1.1850
85.1945	30.2913	1.2126
85.2793	31.3107	1.2329
85.3641	35.8252	1.3187
85.4489	41.0680	1.4119
85.5337	41.3107	1.4161
85.6185	46.6505	1.5049
85.7033	52.2330	1.5924
85.7881	64.3689	1.7677
85.8729	59.0865	1.6854
85.9577	53.6538	1.6061
86.0425	52.6923	1.5916
86.1273	49.6635	1.5452
86.2121	38.9904	1.3691
86.2969	32.9524	1.2527
86.3817	31.2381	1.2196
86.4665	26.2381	1.1178
86.5513	23.9048	1.0669
86.6361	25.2381	1.0963
86.7209	22.7619	1.0411
86.8057	20.6667	0.9920
86.8905	21.0000	1.0000
86.9752	22.3333	1.0313
87.0600	21.4762	1.0113
87.1448	18.4762	0.9380
87.2296	19.8571	0.9724
87.3144	19.4762	0.9630
87.3992	20.0943	0.9736
87.4840	18.1132	0.9243
87.5688	17.1226	0.8987
87.6536	19.7642	0.9655
87.7384	18.6792	0.9387
87.8232	18.7264	0.9399
87.9080	18.6321	0.9375
87.9928	16.7925	0.8900
88.0776	17.7830	0.9159
88.1624	18.9352	0.9363
88.2472	19.9537	0.9611
88.3320	16.9907	0.8869
88.4168	16.3889	0.8711
88.5016	17.7982	0.9036
88.5864	18.8073	0.9288
88.6712	17.0183	0.8835
88.7560	18.5780	0.9231
88.8408	17.8440	0.9047
88.9256	14.8624	0.8257
89.0104	16.8807	0.8800
89.0952	18.3945	0.9186
89.1800	17.2936	0.8907
89.2648	18.8636	0.9260
89.3496	17.7727	0.8988
89.4344	17.4545	0.8907
89.5192	19.8182	0.9491
89.6039	16.9091	0.8767
89.6887	18.7727	0.9237
89.7735	17.2273	0.8849
89.8583	18.2273	0.9102
89.9431	17.9091	0.9022
90.0279	16.9545	0.8779
90.1127	18.7273	0.9226
90.1975	18.9545	0.9282
90.2823	17.9545	0.9034
90.3671	17.7727	0.8988
90.4519	18.6036	0.9154
90.5367	19.3243	0.9330
90.6215	18.7387	0.9187
90.7063	16.8142	0.8625
90.7911	18.2743	0.8992
90.8759	17.7876	0.8872
90.9607	16.3717	0.8511
91.0455	17.3451	0.8761
91.1303	17.6549	0.8838
91.2151	18.6283	0.9079
91.2999	18.2301	0.8981
91.3847	17.8761	0.8894
91.4695	17.8319	0.8883
91.5543	16.9912	0.8671
91.6391	17.6316	0.8794
91.7239	18.6087	0.8995
91.8087	19.3043	0.9161
91.8935	18.6522	0.9005
91.9783	18.0870	0.8868
92.0631	17.8261	0.8804
92.1478	19.3043	0.9161
92.2326	17.8696	0.8814
92.3174	19.6522	0.9244
92.4022	18.4783	0.8963
92.4870	20.2174	0.9376
92.5718	19.6957	0.9254
92.6566	18.0000	0.8847
92.7414	19.4348	0.9192
92.8262	19.2241	0.9103
92.9110	19.2241	0.9103
92.9958	19.0517	0.9062
93.0806	18.3621	0.8896
93.1654	19.7845	0.9235
93.2502	18.1897	0.8855
93.3350	20.0431	0.9295
93.4198	19.5690	0.9184
93.5046	20.4310	0.9384
93.5894	19.2672	0.9113
93.6742	17.7155	0.8738
93.7590	20.6897	0.9443
93.8438	19.2672	0.9113
93.9286	20.5462	0.9291
94.0134	19.1176	0.8962
94.0982	19.3697	0.9021
94.1830	20.2101	0.9215
94.2678	19.7479	0.9109
94.3526	18.8235	0.8893
94.4374	20.5462	0.9291
94.5222	20.2521	0.9225
94.6070	19.0756	0.8953
94.6917	19.3277	0.9012
94.7765	21.5126	0.9507
94.8613	18.9076	0.8913
94.9461	20.6303	0.9310
95.0309	20.7500	0.9298
95.1157	19.7500	0.9071
95.2005	20.1250	0.9157
95.2853	21.0417	0.9363
95.3701	22.0833	0.9592
95.4549	21.9167	0.9556
95.5397	21.7083	0.9511
95.6245	20.8750	0.9326
95.7093	21.9167	0.9556
95.7941	21.2917	0.9419
95.8789	22.0000	0.9574
95.9637	20.5833	0.9261
96.0485	21.2917	0.9419
96.1333	23.4298	0.9840
96.2181	21.8293	0.9420
96.3029	23.4146	0.9756
96.3877	21.1789	0.9279
96.4725	22.8049	0.9628
96.5573	20.4878	0.9126
96.6421	22.2764	0.9516
96.7269	23.5366	0.9781
96.8117	23.1707	0.9705
96.8965	24.1057	0.9899
96.9813	25.0000	1.0081
97.0661	25.6098	1.0203
97.1509	24.3902	0.9957
97.2356	23.9113	0.9819
97.3204	25.5242	1.0145
97.4052	24.4800	0.9895
97.4900	24.9200	0.9984
97.5748	28.2000	1.0621
97.6596	27.6000	1.0507
97.7444	28.3200	1.0643
97.8292	29.8400	1.0925
97.9140	31.5600	1.1236
97.9988	33.6800	1.1607
98.0836	35.5600	1.1926
98.1684	37.0000	1.2166
98.2532	38.7600	1.2452
98.3380	41.0714	1.2766
98.4228	44.3254	1.3263
98.5076	49.5703	1.3915
98.5924	51.8359	1.4230
98.6772	56.1328	1.4808
98.7620	60.0391	1.5314
98.8468	61.1628	1.5397
98.9316	65.3876	1.5920
99.0164	78.1783	1.7407
99.1012	83.4884	1.7989
99.1860	85.6202	1.8217
99.2708	79.3411	1.7536
99.3556	72.3077	1.6677
99.4404	69.1923	1.6313
99.5252	65.7308	1.5900
99.6100	56.3462	1.4721
99.6948	50.8397	1.3930
99.7795	47.1374	1.3413
99.8643	39.7328	1.2315
99.9491	36.4122	1.1789
100.0339	33.0534	1.1232
100.1187	33.0916	1.1238
100.2035	28.6641	1.0460
100.2883	29.2366	1.0564
100.3731	27.0992	1.0170
100.4579	26.5789	0.9996
100.5427	26.3910	0.9961
100.6275	26.0150	0.9889
100.7123	26.3910	0.9961
100.7971	24.1045	0.9484
100.8819	25.7836	0.9809
100.9667	25.2963	0.9679
101.0515	24.4074	0.9508
101.1363	24.6667	0.9558
101.2211	25.6667	0.9750
101.3059	24.9259	0.9608
101.3907	23.7868	0.9352
101.4755	24.2279	0.9438
101.5603	23.2721	0.9250
101.6451	24.1544	0.9424
101.7299	24.5221	0.9495
101.8147	23.6765	0.9330
101.8995	24.8897	0.9566
101.9843	23.4420	0.9216
102.0691	25.4317	0.9565
102.1539	23.8849	0.9269
102.2387	24.0288	0.9297
102.3234	23.2014	0.9136
102.4082	24.3165	0.9353
102.4930	24.7842	0.9442
102.5778	24.3972	0.9301
102.6626	23.8298	0.9193
102.7474	23.5461	0.9138
102.8322	24.1489	0.9254
102.9170	24.3972	0.9301
103.0018	23.7589	0.9179
103.0866	24.4326	0.9308
103.1714	23.1469	0.8996
103.2562	24.2308	0.9205
103.3410	23.0070	0.8969
103.4258	25.4196	0.9428
103.5106	23.2517	0.9017
103.5954	25.4196	0.9428
103.6802	25.1736	0.9349
103.7650	24.2069	0.9136
103.8498	24.2069	0.9136
103.9346	24.6897	0.9227
104.0194	25.8621	0.9443
104.1042	23.6552	0.9032
104.1890	24.3493	0.9132
104.2738	23.9384	0.9054
104.3586	24.4178	0.9145
104.4434	24.4521	0.9151
104.5282	23.1849	0.8911
104.6130	23.0822	0.8891
104.6978	24.5270	0.9103
104.7826	26.0473	0.9381
104.8674	23.7500	0.8957
104.9521	24.1611	0.9004
105.0369	23.7919	0.8935
105.1217	23.8926	0.8954
105.2065	24.4966	0.9067
105.2913	23.8667	0.8919
105.3761	24.7000	0.9074
105.4609	25.5000	0.9220
105.5457	25.8609	0.9254
105.6305	25.0993	0.9116
105.7153	24.6689	0.9038
105.8001	24.7020	0.9044
105.8849	25.6291	0.9212
105.9697	24.3046	0.8971
106.0545	25.7285	0.9230
106.1393	25.7190	0.9168
106.2241	25.4575	0.9121
106.3089	25.8442	0.9160
106.3937	25.9416	0.9177
106.4785	25.0974	0.9027
106.5633	24.8377	0.8980
106.6481	25.3571	0.9073
106.7329	25.2581	0.9026
106.8177	25.0323	0.8986
106.9025	25.6410	0.9065
106.9873	25.1923	0.8986
107.0721	25.3846	0.9020
107.1569	25.7051	0.9077
107.2417	25.0321	0.8957
107.3265	25.9936	0.9128
107.4113	26.1392	0.9095
107.4960	25.3797	0.8962
107.5808	25.0000	0.8895
107.6656	25.7911	0.9034
107.7504	26.0127	0.9073
107.8352	26.4241	0.9144
107.9200	26.5938	0.9116
108.0048	26.2188	0.9052
108.0896	25.6250	0.8949
108.1744	27.3718	0.9366
108.2592	25.8117	0.9154
108.3440	28.0464	0.9637
108.4288	26.9595	0.9544
108.5136	27.0205	0.9620
108.5984	26.1189	0.9556
108.6832	26.3571	0.9702
108.7680	27.3529	1.0028
108.8528	25.6716	0.9787
108.9376	25.9160	0.9946
109.0224	25.6641	1.0013
109.1072	26.6000	1.0315
109.1920	28.6179	1.0786
109.2768	25.3333	1.0274
109.3616	26.5948	1.0707
109.4464	25.3070	1.0535
109.5312	27.1818	1.1115
109.6160	25.7870	1.0926
109.7008	26.6667	1.1269
109.7856	25.4854	1.1123
109.8704	28.7000	1.1979
109.9552	26.3542	1.1716
109.9834	26.5263	1.1816