File: XRD/Homogenization/9_W0.40Ta0.40Ti0.20_HIP1800C_10h_fast_cooling.xye
1.540593
20.0707	46.1111	3.5789
20.1555	34.4444	3.0932
20.2403	35.0000	3.1180
20.3251	38.8889	3.2867
20.4099	37.2222	3.2155
20.4946	39.7222	3.3217
20.5794	38.6111	3.2750
20.6642	36.9444	3.2035
20.7490	34.1667	3.0807
20.8338	45.5556	3.5573
20.9186	43.6111	3.4805
21.0034	34.1667	3.0807
21.0882	36.3889	3.1793
21.1730	39.1667	3.2984
21.2578	37.7778	3.2394
21.3426	38.0000	3.0822
21.4274	36.2500	3.0104
21.5122	30.0000	2.7386
21.5970	31.2500	2.7951
21.6818	37.2500	3.0516
21.7666	36.2500	3.0104
21.8514	35.5000	2.9791
21.9362	31.7500	2.8174
22.0210	32.2500	2.8395
22.1058	31.7500	2.8174
22.1906	37.7500	3.0721
22.2754	34.7500	2.9475
22.3602	32.2500	2.8395
22.4450	30.5000	2.7613
22.5298	37.7500	3.0721
22.6146	29.7500	2.7272
22.6994	33.0000	2.8723
22.7842	27.7500	2.6339
22.8690	33.2500	2.8831
22.9538	30.0000	2.7386
23.0385	30.0000	2.7386
23.1233	25.0000	2.5000
23.2081	26.5000	2.5739
23.2929	32.0000	2.8284
23.3777	28.5000	2.6693
23.4625	30.5000	2.7613
23.5473	25.7500	2.5372
23.6321	31.0000	2.7839
23.7169	31.2500	2.7951
23.8017	27.7500	2.6339
23.8865	31.2500	2.7951
23.9713	29.5000	2.7157
24.0561	27.0000	2.5981
24.1409	30.0000	2.7386
24.2257	27.2500	2.6101
24.3105	29.0000	2.6926
24.3953	28.7500	2.6810
24.4801	26.7500	2.5860
24.5649	31.0000	2.7839
24.6497	26.0000	2.5495
24.7345	27.7500	2.6339
24.8193	29.0000	2.6926
24.9041	27.5000	2.6220
24.9889	24.0000	2.4495
25.0737	25.7500	2.5372
25.1585	24.5238	2.4164
25.2433	31.4286	2.7355
25.3281	27.1429	2.5422
25.4129	25.7143	2.4744
25.4977	28.3333	2.5973
25.5824	24.2857	2.4046
25.6672	26.6667	2.5198
25.7520	24.0909	2.3399
25.8368	26.8182	2.4688
25.9216	25.0000	2.3837
26.0064	25.2273	2.3945
26.0912	24.3182	2.3509
26.1760	24.5455	2.3619
26.2608	25.9091	2.4266
26.3456	25.4545	2.4052
26.4304	21.1364	2.1917
26.5152	25.4545	2.4052
26.6000	21.8182	2.2268
26.6848	22.0455	2.2384
26.7696	22.0455	2.2384
26.8544	24.7727	2.3728
26.9392	22.0455	2.2384
27.0240	20.9091	2.1799
27.1088	21.5909	2.2152
27.1936	22.2727	2.2499
27.2784	18.4091	2.0455
27.3632	23.4091	2.3066
27.4480	22.2727	2.2499
27.5328	25.6818	2.4159
27.6176	20.6818	2.1680
27.7024	15.4545	1.8741
27.7872	21.8182	2.2268
27.8720	22.2727	2.2499
27.9568	24.0909	2.3399
28.0416	22.9545	2.2841
28.1263	23.1818	2.2953
28.2111	26.5909	2.4583
28.2959	22.2727	2.2499
28.3807	24.3182	2.3509
28.4655	19.3182	2.0954
28.5503	21.8182	2.2268
28.6351	22.9545	2.2841
28.7199	20.6818	2.1680
28.8047	22.5000	2.2613
28.8895	20.9091	2.1799
28.9743	21.8182	2.2268
29.0591	19.3182	2.0954
29.1439	22.0455	2.2384
29.2287	20.6818	2.1680
29.3135	16.5909	1.9418
29.3983	18.8636	2.0706
29.4831	24.3182	2.3509
29.5679	21.8182	2.2268
29.6527	21.8182	2.2268
29.7375	16.8182	1.9551
29.8223	19.0909	2.0830
29.9071	20.6818	2.1680
29.9919	22.9545	2.2841
30.0767	20.9091	2.1799
30.1615	16.9565	1.9199
30.2463	20.0000	2.0851
30.3311	17.3913	1.9444
30.4159	16.7391	1.9076
30.5007	16.7391	1.9076
30.5855	24.1304	2.2904
30.6702	18.2609	1.9924
30.7550	17.8261	1.9686
30.8398	16.5217	1.8952
30.9246	20.8696	2.1300
31.0094	22.1739	2.1955
31.0942	19.7826	2.0738
31.1790	19.5652	2.0624
31.2638	16.3043	1.8827
31.3486	16.9565	1.9199
31.4334	20.6522	2.1189
31.5182	15.8696	1.8574
31.6030	20.6522	2.1189
31.6878	24.1304	2.2904
31.7726	17.6087	1.9565
31.8574	18.9130	2.0277
31.9422	17.6087	1.9565
32.0270	19.5652	2.0624
32.1118	16.5217	1.8952
32.1966	21.0870	2.1411
32.2814	16.9565	1.9199
32.3662	16.9565	1.9199
32.4510	18.4783	2.0042
32.5358	18.0435	1.9805
32.6206	19.5652	2.0624
32.7054	15.6522	1.8446
32.7902	13.9130	1.7391
32.8750	17.6087	1.9565
32.9598	15.2174	1.8188
33.0446	14.5652	1.7794
33.1294	16.7391	1.9076
33.2142	13.4783	1.7117
33.2989	18.0435	1.9805
33.3837	17.1739	1.9322
33.4685	19.1304	2.0393
33.5533	17.8261	1.9686
33.6381	21.0870	2.1411
33.7229	18.0435	1.9805
33.8077	16.9565	1.9199
33.8925	14.2000	1.6852
33.9773	16.6000	1.8221
34.0621	14.0000	1.6733
34.1469	17.0000	1.8439
34.2317	12.8000	1.6000
34.3165	14.2000	1.6852
34.4013	15.4000	1.7550
34.4861	17.8000	1.8868
34.5709	16.5385	1.7834
34.6557	16.3462	1.7730
34.7405	14.6154	1.6765
34.8253	14.8077	1.6875
34.9101	14.2308	1.6543
34.9949	15.9615	1.7520
35.0797	15.0000	1.6984
35.1645	14.4231	1.6654
35.2493	15.1923	1.7093
35.3341	14.0385	1.6431
35.4189	13.4615	1.6090
35.5037	18.2692	1.8744
35.5885	12.6923	1.5623
35.6733	14.2308	1.6543
35.7581	13.6538	1.6204
35.8428	12.3077	1.5385
35.9276	13.2692	1.5974
36.0124	12.3077	1.5385
36.0972	13.4615	1.6090
36.1820	12.1154	1.5264
36.2668	12.6923	1.5623
36.3516	14.6154	1.6765
36.4364	16.1538	1.7625
36.5212	16.9231	1.8040
36.6060	15.1923	1.7093
36.6908	14.8077	1.6875
36.7756	15.1923	1.7093
36.8604	15.0000	1.6984
36.9452	13.6538	1.6204
37.0300	14.8077	1.6875
37.1148	12.6923	1.5623
37.1996	14.6154	1.6765
37.2844	14.6154	1.6765
37.3692	11.7308	1.5020
37.4540	11.5385	1.4896
37.5388	16.3462	1.7730
37.6236	13.4615	1.6090
37.7084	15.3846	1.7201
37.7932	15.1923	1.7093
37.8780	17.1154	1.8142
37.9628	14.4231	1.6654
38.0476	18.6538	1.8940
38.1324	17.8846	1.8545
38.2172	17.3077	1.8244
38.3020	18.3333	1.8426
38.3867	20.9259	1.9685
38.4715	21.8519	2.0116
38.5563	16.8519	1.7666
38.6411	20.7407	1.9598
38.7259	26.6667	2.2222
38.8107	29.8148	2.3497
38.8955	34.6296	2.5324
38.9803	53.3333	3.1427
39.0651	57.7778	3.2710
39.1499	81.6667	3.8889
39.2347	122.7778	4.7683
39.3195	178.7037	5.7527
39.4043	293.1481	7.3680
39.4891	319.8148	7.6958
39.5739	296.1111	7.4051
39.6587	227.2222	6.4868
39.7435	165.9259	5.5432
39.8283	117.2222	4.6592
39.9131	74.8148	3.7222
39.9979	51.1111	3.0765
40.0827	42.4074	2.8024
40.1675	30.9259	2.3931
40.2523	26.2963	2.2067
40.3371	22.4074	2.0370
40.4219	22.4074	2.0370
40.5067	20.3704	1.9422
40.5915	16.6667	1.7568
40.6763	18.3333	1.8426
40.7611	17.7778	1.8144
40.8459	17.2222	1.7859
40.9306	15.9259	1.7173
41.0154	14.2593	1.6250
41.1002	18.7037	1.8611
41.1850	13.5185	1.5822
41.2698	16.4815	1.7470
41.3546	13.8889	1.6038
41.4394	14.0741	1.6144
41.5242	17.4074	1.7954
41.6090	13.5185	1.5822
41.6938	14.2593	1.6250
41.7786	13.3333	1.5713
41.8634	11.6667	1.4699
41.9482	12.7778	1.5383
42.0330	15.7407	1.7073
42.1178	16.1111	1.7273
42.2026	14.0741	1.6144
42.2874	12.2222	1.5045
42.3722	13.7037	1.5930
42.4570	14.6296	1.6460
42.5418	11.6667	1.4699
42.6266	11.4286	1.4286
42.7114	10.8929	1.3947
42.7962	12.3214	1.4833
42.8810	13.2143	1.5361
42.9658	12.8571	1.5152
43.0506	11.9643	1.4617
43.1354	13.0357	1.5257
43.2202	13.2143	1.5361
43.3050	14.1071	1.5872
43.3898	13.2143	1.5361
43.4745	13.8333	1.5184
43.5593	11.1667	1.3642
43.6441	10.6667	1.3333
43.7289	8.1667	1.1667
43.8137	9.8333	1.2802
43.8985	10.3333	1.3123
43.9833	10.1667	1.3017
44.0681	10.0000	1.2910
44.1529	11.6667	1.3944
44.2377	12.6667	1.4530
44.3225	10.0000	1.2910
44.4073	7.3333	1.1055
44.4921	11.1667	1.3642
44.5769	13.1667	1.4814
44.6617	8.6667	1.2019
44.7465	10.1667	1.3017
44.8313	10.1667	1.3017
44.9161	8.8333	1.2134
45.0009	11.1667	1.3642
45.0857	9.5000	1.2583
45.1705	8.1667	1.1667
45.2553	8.1667	1.1667
45.3401	7.8333	1.1426
45.4249	10.3333	1.3123
45.5097	9.1667	1.2360
45.5945	10.6667	1.3333
45.6793	10.5000	1.3229
45.7641	7.8333	1.1426
45.8489	8.8333	1.2134
45.9337	8.1667	1.1667
46.0184	9.3333	1.2472
46.1032	13.0000	1.4720
46.1880	8.8333	1.2134
46.2728	8.1667	1.1667
46.3576	9.0000	1.2247
46.4424	10.5000	1.3229
46.5272	11.5000	1.3844
46.6120	10.3226	1.2903
46.6968	7.5806	1.1058
46.7816	11.7742	1.3781
46.8664	8.7097	1.1852
46.9512	9.0323	1.2070
47.0360	7.7419	1.1175
47.1208	9.0323	1.2070
47.2056	10.0000	1.2700
47.2904	10.0000	1.2700
47.3752	9.1935	1.2177
47.4600	7.3438	1.0712
47.5448	8.7500	1.1693
47.6296	9.0625	1.1900
47.7144	8.9063	1.1797
47.7992	10.0000	1.2500
47.8840	10.1563	1.2597
47.9688	10.4688	1.2790
48.0536	9.6875	1.2303
48.1384	7.3438	1.0712
48.2232	10.1563	1.2597
48.3080	8.1250	1.1267
48.3928	9.6875	1.2303
48.4776	9.6875	1.2303
48.5624	8.9063	1.1797
48.6471	11.2500	1.3258
48.7319	8.2813	1.1375
48.8167	7.1875	1.0597
48.9015	7.1875	1.0597
48.9863	7.1875	1.0597
49.0711	9.2188	1.2002
49.1559	7.5000	1.0825
49.2407	9.0625	1.1900
49.3255	11.0938	1.3166
49.4103	7.3438	1.0712
49.4951	10.3125	1.2694
49.5799	7.8125	1.1049
49.6647	7.5000	1.0825
49.7495	6.8750	1.0364
49.8343	10.6250	1.2885
49.9191	7.9688	1.1158
50.0039	9.8438	1.2402
50.0887	11.0938	1.3166
50.1735	9.2188	1.2002
50.2583	7.1875	1.0597
50.3431	9.5313	1.2204
50.4279	9.0625	1.1900
50.5127	8.4375	1.1482
50.5975	9.2188	1.2002
50.6823	8.2813	1.1375
50.7671	9.5313	1.2204
50.8519	7.8125	1.1049
50.9367	8.2813	1.1375
51.0215	7.6563	1.0938
51.1063	8.4375	1.1482
51.1910	7.6563	1.0938
51.2758	9.2188	1.2002
51.3606	9.5313	1.2204
51.4454	9.8438	1.2402
51.5302	7.3529	1.0399
51.6150	8.0882	1.0906
51.6998	8.0882	1.0906
51.7846	6.9118	1.0082
51.8694	10.0000	1.2127
51.9542	8.2353	1.1005
52.0390	7.6471	1.0605
52.1238	9.5588	1.1856
52.2086	8.5294	1.1200
52.2934	9.2647	1.1672
52.3782	10.0000	1.2127
52.4630	9.7059	1.1947
52.5478	9.5588	1.1856
52.6326	10.8824	1.2650
52.7174	6.7647	0.9974
52.8022	9.1176	1.1579
52.8870	8.5294	1.1200
52.9718	4.8529	0.8448
53.0566	8.2353	1.1005
53.1414	9.8529	1.2037
53.2262	7.6471	1.0605
53.3110	6.4706	0.9755
53.3958	7.0588	1.0189
53.4806	8.9706	1.1486
53.5654	9.5588	1.1856
53.6502	9.8529	1.2037
53.7349	8.3824	1.1103
53.8197	6.6176	0.9865
53.9045	7.5000	1.0502
53.9893	9.2647	1.1672
54.0741	8.9706	1.1486
54.1589	8.2353	1.1005
54.2437	7.2059	1.0294
54.3285	6.6176	0.9865
54.4133	7.7941	1.0706
54.4981	6.7647	0.9974
54.5829	7.2857	1.0202
54.6677	7.2857	1.0202
54.7525	6.4286	0.9583
54.8373	7.5714	1.0400
54.9221	9.7143	1.1780
55.0069	9.5714	1.1693
55.0917	7.8571	1.0595
55.1765	8.5714	1.1066
55.2613	8.8571	1.1249
55.3461	7.0000	1.0000
55.4309	8.8571	1.1249
55.5157	8.8889	1.1111
55.6005	8.8889	1.1111
55.6853	8.8889	1.1111
55.7701	7.3611	1.0111
55.8549	9.8611	1.1703
55.9397	8.8889	1.1111
56.0245	10.0000	1.1785
56.1093	10.1389	1.1867
56.1941	9.0278	1.1198
56.2788	13.8889	1.3889
56.3636	15.2778	1.4567
56.4484	16.1111	1.4959
56.5332	18.7500	1.6137
56.6180	22.5000	1.7678
56.7028	29.8611	2.0365
56.7876	39.0278	2.3282
56.8724	43.6111	2.4611
56.9572	52.6389	2.7039
57.0420	53.1944	2.7181
57.1268	49.0278	2.6095
57.2116	40.0000	2.3570
57.2964	36.1111	2.2395
57.3812	29.0278	2.0079
57.4660	21.2500	1.7180
57.5508	16.3889	1.5087
57.6356	13.6111	1.3749
57.7204	12.3611	1.3103
57.8052	13.0556	1.3466
57.8900	11.6667	1.2729
57.9748	11.1111	1.2423
58.0596	12.0833	1.2955
58.1444	9.5833	1.1537
58.2292	8.4722	1.0848
58.3140	7.0833	0.9919
58.3988	8.7500	1.1024
58.4836	8.5135	1.0726
58.5684	8.1081	1.0468
58.6532	7.0270	0.9745
58.7380	7.1622	0.9838
58.8227	10.8108	1.2087
58.9075	8.6486	1.0811
58.9923	7.5676	1.0113
59.0771	7.0270	0.9745
59.1619	6.8919	0.9651
59.2467	7.2973	0.9930
59.3315	7.0270	0.9745
59.4163	8.7838	1.0895
59.5011	6.2162	0.9165
59.5859	7.1622	0.9838
59.6707	6.2162	0.9165
59.7555	7.1622	0.9838
59.8403	7.0270	0.9745
59.9251	7.4324	1.0022
60.0099	7.4324	1.0022
60.0947	5.9459	0.8964
60.1795	7.7027	1.0202
60.2643	6.3514	0.9264
60.3491	7.1622	0.9838
60.4339	7.2973	0.9930
60.5187	6.2162	0.9165
60.6035	6.4865	0.9362
60.6883	8.2432	1.0554
60.7731	7.4324	1.0022
60.8579	5.4054	0.8547
60.9427	7.8378	1.0292
61.0275	5.9459	0.8964
61.1123	5.9459	0.8964
61.1971	7.1622	0.9838
61.2819	7.2973	0.9930
61.3667	6.0811	0.9065
61.4514	5.4054	0.8547
61.5362	6.2162	0.9165
61.6210	8.1081	1.0468
61.7058	6.6216	0.9459
61.7906	7.2973	0.9930
61.8754	5.1351	0.8330
61.9602	7.2973	0.9930
62.0450	6.8919	0.9651
62.1298	8.2432	1.0554
62.2146	5.5405	0.8653
62.2994	6.6216	0.9459
62.3842	6.3514	0.9264
62.4690	7.0513	0.9508
62.5538	6.4103	0.9065
62.6386	6.5385	0.9156
62.7234	6.0256	0.8789
62.8082	7.0513	0.9508
62.8930	6.1538	0.8882
62.9778	6.9231	0.9421
63.0626	6.7949	0.9333
63.1474	6.5385	0.9156
63.2322	7.4359	0.9764
63.3170	5.6410	0.8504
63.4018	7.0513	0.9508
63.4866	6.4103	0.9065
63.5714	6.3750	0.8927
63.6562	6.3750	0.8927
63.7410	6.1250	0.8750
63.8258	7.1250	0.9437
63.9106	7.0000	0.9354
63.9953	6.3750	0.8927
64.0801	6.1250	0.8750
64.1649	8.2500	1.0155
64.2497	7.6250	0.9763
64.3345	7.5000	0.9682
64.4193	6.3750	0.8927
64.5041	6.7500	0.9186
64.5889	7.3750	0.9601
64.6737	6.3750	0.8927
64.7585	7.0000	0.9354
64.8433	6.3095	0.8667
64.9281	6.5476	0.8829
65.0129	6.5476	0.8829
65.0977	5.4762	0.8074
65.1825	6.4286	0.8748
65.2673	6.7857	0.8988
65.3521	4.8810	0.7623
65.4369	7.5000	0.9449
65.5217	6.5476	0.8829
65.6065	7.9762	0.9744
65.6913	6.3095	0.8667
65.7761	6.4286	0.8748
65.8609	5.9524	0.8418
65.9457	6.4286	0.8748
66.0305	7.5556	0.9162
66.1153	7.1111	0.8889
66.2001	5.2222	0.7617
66.2849	5.5556	0.7857
66.3697	5.7778	0.8012
66.4545	5.6667	0.7935
66.5392	6.5556	0.8535
66.6240	6.8889	0.8749
66.7088	6.3333	0.8389
66.7936	5.8889	0.8089
66.8784	6.1111	0.8240
66.9632	6.2222	0.8315
67.0480	5.8889	0.8089
67.1328	6.5556	0.8535
67.2176	6.3333	0.8389
67.3024	6.5957	0.8377
67.3872	5.5319	0.7671
67.4720	6.1702	0.8102
67.5568	7.8723	0.9151
67.6416	6.1702	0.8102
67.7264	7.0213	0.8643
67.8112	7.0213	0.8643
67.8960	5.8511	0.7890
67.9808	5.7447	0.7818
68.0656	6.8085	0.8511
68.1504	5.9574	0.7961
68.2352	7.2340	0.8773
68.3200	6.4894	0.8309
68.4048	6.5957	0.8377
68.4896	7.1429	0.8537
68.5744	6.3265	0.8035
68.6592	6.4286	0.8099
68.7440	5.9184	0.7771
68.8288	8.7755	0.9463
68.9136	7.0408	0.8476
68.9984	5.9184	0.7771
69.0831	6.0204	0.7838
69.1679	6.1224	0.7904
69.2527	6.8367	0.8352
69.3375	8.3673	0.9240
69.4223	6.6327	0.8227
69.5071	6.8000	0.8246
69.5919	7.2000	0.8485
69.6767	6.0000	0.7746
69.7615	6.6000	0.8124
69.8463	7.9000	0.8888
69.9311	9.3000	0.9644
70.0159	7.3000	0.8544
70.1007	8.2000	0.9055
70.1855	7.8000	0.8832
70.2703	9.1000	0.9539
70.3551	8.4000	0.9165
70.4399	11.0000	1.0488
70.5247	10.3000	1.0149
70.6095	12.0000	1.0954
70.6943	13.1731	1.1255
70.7791	15.0000	1.2010
70.8639	19.4231	1.3666
70.9487	21.2500	1.4294
71.0335	25.3846	1.5623
71.1183	27.7885	1.6346
71.2031	35.3846	1.8446
71.2879	41.9231	2.0078
71.3727	48.1731	2.1522
71.4575	59.8077	2.3981
71.5423	65.5769	2.5111
71.6270	73.7500	2.6630
71.7118	64.3269	2.4870
71.7966	65.0962	2.5018
71.8814	56.6667	2.2906
71.9662	44.6296	2.0328
72.0510	46.3889	2.0725
72.1358	35.2778	1.8073
72.2206	32.0909	1.7080
72.3054	26.8182	1.5614
72.3902	21.7273	1.4054
72.4750	17.2727	1.2531
72.5598	13.0909	1.0909
72.6446	12.4545	1.0641
72.7294	10.3636	0.9706
72.8142	9.0000	0.9045
72.8990	6.8182	0.7873
72.9838	7.4545	0.8232
73.0686	7.8182	0.8431
73.1534	6.6364	0.7767
73.2382	7.8182	0.8431
73.3230	6.4545	0.7660
73.4078	6.4035	0.7495
73.4926	7.8947	0.8322
73.5774	7.8947	0.8322
73.6622	6.8421	0.7747
73.7470	5.7018	0.7072
73.8318	6.0526	0.7287
73.9166	7.4561	0.8087
74.0014	6.4035	0.7495
74.0862	5.9649	0.7234
74.1709	7.4561	0.8087
74.2557	7.4561	0.8087
74.3405	6.7544	0.7697
74.4253	6.7544	0.7697
74.5101	6.2281	0.7391
74.5949	6.6667	0.7647
74.6797	8.0508	0.8260
74.7645	6.2712	0.7290
74.8493	5.9322	0.7090
74.9341	5.3390	0.6726
75.0189	6.1017	0.7191
75.1037	6.6949	0.7532
75.1885	6.6949	0.7532
75.2733	6.6949	0.7532
75.3581	6.8333	0.7546
75.4429	7.5000	0.7906
75.5277	6.5833	0.7407
75.6125	6.1667	0.7169
75.6973	6.5833	0.7407
75.7821	4.9167	0.6401
75.8669	6.8333	0.7546
75.9517	6.6667	0.7454
76.0365	4.6667	0.6236
76.1213	6.2500	0.7217
76.2061	6.3333	0.7265
76.2909	6.3333	0.7265
76.3757	5.5000	0.6770
76.4605	6.3333	0.7265
76.5453	6.4516	0.7213
76.6301	5.4839	0.6650
76.7149	7.5806	0.7819
76.7996	5.9677	0.6937
76.8844	4.5968	0.6089
76.9692	5.5645	0.6699
77.0540	5.0000	0.6350
77.1388	7.3387	0.7693
77.2236	7.2581	0.7651
77.3084	5.9677	0.6937
77.3932	5.7258	0.6795
77.4780	5.8065	0.6843
77.5628	7.4194	0.7735
77.6476	6.6129	0.7303
77.7324	6.4063	0.7075
77.8172	5.4688	0.6536
77.9020	6.0156	0.6855
77.9868	6.7188	0.7245
78.0716	4.9219	0.6201
78.1564	6.4844	0.7118
78.2412	5.9375	0.6811
78.3260	5.2308	0.6343
78.4108	4.6923	0.6008
78.4956	7.0769	0.7378
78.5804	6.0000	0.6794
78.6652	5.3846	0.6436
78.7500	4.6154	0.5958
78.8348	6.0769	0.6837
78.9196	5.6154	0.6572
79.0044	6.3077	0.6966
79.0892	6.5385	0.7092
79.1740	5.6923	0.6617
79.2588	6.5385	0.7092
79.3435	6.3077	0.6966
79.4283	5.4615	0.6482
79.5131	6.5385	0.7092
79.5979	6.8657	0.7158
79.6827	5.0746	0.6154
79.7675	5.7463	0.6548
79.8523	6.8657	0.7158
79.9371	6.2687	0.6840
80.0219	5.8955	0.6633
80.1067	5.7353	0.6494
80.1915	5.2206	0.6196
80.2763	7.0588	0.7204
80.3611	5.9559	0.6618
80.4459	5.6618	0.6452
80.5307	6.4706	0.6898
80.6155	6.3971	0.6858
80.7003	6.4706	0.6898
80.7851	5.1449	0.6106
80.8699	6.9565	0.7100
80.9547	4.3478	0.5613
81.0395	6.4493	0.6836
81.1243	4.9275	0.5976
81.2091	7.9286	0.7525
81.2939	6.7143	0.6925
81.3787	6.5714	0.6851
81.4635	5.7143	0.6389
81.5483	6.2143	0.6662
81.6331	6.0000	0.6547
81.7179	6.3571	0.6739
81.8027	6.0714	0.6585
81.8874	6.1429	0.6624
81.9722	5.7857	0.6429
82.0570	6.1429	0.6624
82.1418	6.4286	0.6776
82.2266	6.5000	0.6814
82.3114	6.7143	0.6925
82.3962	5.2778	0.6054
82.4810	6.2500	0.6588
82.5658	6.6667	0.6804
82.6506	6.3889	0.6661
82.7354	5.7639	0.6327
82.8202	6.8750	0.6910
82.9050	6.6667	0.6804
82.9898	6.4583	0.6697
83.0746	7.1528	0.7048
83.1594	6.3194	0.6625
83.2442	5.6164	0.6202
83.3290	7.2603	0.7052
83.4138	6.9863	0.6917
83.4986	6.9863	0.6917
83.5834	7.3649	0.7054
83.6682	6.4865	0.6620
83.7530	7.3649	0.7054
83.8378	7.9054	0.7309
83.9226	7.4324	0.7087
84.0074	7.7703	0.7246
84.0922	8.7162	0.7674
84.1770	8.1757	0.7432
84.2618	10.1351	0.8275
84.3466	11.0811	0.8653
84.4313	13.7838	0.9651
84.5161	12.7333	0.9214
84.6009	19.0667	1.1274
84.6857	20.0000	1.1547
84.7705	22.0000	1.2111
84.8553	23.7333	1.2579
84.9401	20.2667	1.1624
85.0249	22.8667	1.2347
85.1097	19.8000	1.1489
85.1945	21.5333	1.1981
85.2793	16.8000	1.0583
85.3641	16.0000	1.0328
85.4489	13.2667	0.9404
85.5337	13.1333	0.9357
85.6185	10.5333	0.8380
85.7033	10.9091	0.8417
85.7881	10.0649	0.8084
85.8729	9.9351	0.8032
85.9577	8.0769	0.7195
86.0425	8.3333	0.7309
86.1273	7.8846	0.7109
86.2121	6.3462	0.6378
86.2969	6.3462	0.6378
86.3817	7.3077	0.6844
86.4665	6.6026	0.6506
86.5513	6.7949	0.6600
86.6361	6.2179	0.6313
86.7209	6.6667	0.6537
86.8057	6.8590	0.6631
86.8905	6.7089	0.6516
86.9752	5.8861	0.6104
87.0600	6.3750	0.6312
87.1448	5.4375	0.5830
87.2296	5.5625	0.5896
87.3144	6.1250	0.6187
87.3992	6.1250	0.6187
87.4840	5.8750	0.6060
87.5688	6.7500	0.6495
87.6536	6.0000	0.6124
87.7384	5.7500	0.5995
87.8232	5.8750	0.6060
87.9080	6.0625	0.6156
87.9928	6.1875	0.6219
88.0776	6.1875	0.6219
88.1624	6.8125	0.6525
88.2472	6.2963	0.6234
88.3320	6.0494	0.6111
88.4168	6.2346	0.6204
88.5016	7.0370	0.6591
88.5864	6.4198	0.6295
88.6712	5.8025	0.5985
88.7560	5.8025	0.5985
88.8408	5.4321	0.5791
88.9256	6.5432	0.6355
89.0104	6.0494	0.6111
89.0952	6.0494	0.6111
89.1800	6.0494	0.6111
89.2648	7.9012	0.6984
89.3496	6.8072	0.6404
89.4344	7.6786	0.6761
89.5192	7.3810	0.6628
89.6039	7.5595	0.6708
89.6887	7.6786	0.6761
89.7735	5.5952	0.5771
89.8583	7.2024	0.6548
89.9431	5.8333	0.5893
90.0279	7.0238	0.6466
90.1127	6.9048	0.6411
90.1975	7.4405	0.6655
90.2823	5.1786	0.5552
90.3671	7.2619	0.6575
90.4519	7.7381	0.6787
90.5367	5.8929	0.5923
90.6215	6.2941	0.6085
90.7063	7.3529	0.6577
90.7911	6.3529	0.6113
90.8759	6.5294	0.6197
90.9607	5.7647	0.5823
91.0455	6.5294	0.6197
91.1303	6.2353	0.6056
91.2151	7.3529	0.6577
91.2999	5.7059	0.5793
91.3847	8.0000	0.6860
91.4695	6.2353	0.6056
91.5543	6.5882	0.6225
91.6391	6.4706	0.6169
91.7239	7.8235	0.6784
91.8087	6.0227	0.5850
91.8935	7.3864	0.6478
91.9783	6.4205	0.6040
92.0631	7.5000	0.6528
92.1478	6.5341	0.6093
92.2326	7.3864	0.6478
92.3174	5.5682	0.5625
92.4022	6.0227	0.5850
92.4870	6.4773	0.6067
92.5718	7.0455	0.6327
92.6566	7.1023	0.6352
92.7414	6.5909	0.6120
92.8262	7.0455	0.6327
92.9110	7.6136	0.6577
92.9958	7.5843	0.6528
93.0806	8.2222	0.6759
93.1654	7.8889	0.6620
93.2502	6.4444	0.5984
93.3350	7.5556	0.6479
93.4198	7.0556	0.6261
93.5046	8.0556	0.6690
93.5894	6.7778	0.6136
93.6742	7.0556	0.6261
93.7590	6.8333	0.6161
93.8438	8.3333	0.6804
93.9286	7.2778	0.6359
94.0134	7.7778	0.6573
94.0982	7.3889	0.6407
94.1830	8.0556	0.6690
94.2678	8.7363	0.6928
94.3526	7.2527	0.6313
94.4374	7.6374	0.6478
94.5222	7.3077	0.6337
94.6070	8.9560	0.7015
94.6917	7.1429	0.6265
94.7765	8.4066	0.6796
94.8613	9.3956	0.7185
94.9461	8.6264	0.6885
95.0309	8.2418	0.6729
95.1157	8.0220	0.6639
95.2005	8.7363	0.6928
95.2853	8.8172	0.6885
95.3701	8.5484	0.6779
95.4549	10.8065	0.7622
95.5397	7.9255	0.6493
95.6245	8.4043	0.6686
95.7093	9.6809	0.7176
95.7941	8.7766	0.6833
95.8789	8.8830	0.6874
95.9637	9.3617	0.7057
96.0485	8.9894	0.6915
96.1333	9.1489	0.6976
96.2181	9.0957	0.6956
96.3029	9.7872	0.7215
96.3877	10.2660	0.7390
96.4725	10.7895	0.7536
96.5573	10.0000	0.7255
96.6421	11.5263	0.7789
96.7269	11.4737	0.7771
96.8117	12.2105	0.8017
96.8965	12.8421	0.8221
96.9813	13.4737	0.8421
97.0661	14.4211	0.8712
97.1509	14.4211	0.8712
97.2356	16.9474	0.9444
97.3204	17.4211	0.9575
97.4052	18.5789	0.9889
97.4900	22.0000	1.0761
97.5748	24.1579	1.1276
97.6596	28.9063	1.2270
97.7444	28.8542	1.2259
97.8292	32.7083	1.3052
97.9140	33.3854	1.3186
97.9988	34.6939	1.3304
98.0836	35.8163	1.3518
98.1684	39.6939	1.4231
98.2532	34.0306	1.3177
98.3380	32.8061	1.2937
98.4228	28.4184	1.2041
98.5076	29.8980	1.2351
98.5924	26.2755	1.1578
98.6772	25.3571	1.1374
98.7620	20.8673	1.0318
98.8468	19.2857	0.9920
98.9316	16.0714	0.9055
99.0164	16.9697	0.9258
99.1012	14.4444	0.8541
99.1860	12.9000	0.8031
99.2708	12.9500	0.8047
99.3556	10.8500	0.7365
99.4404	12.7000	0.7969
99.5252	12.7500	0.7984
99.6100	13.0500	0.8078
99.6948	12.3000	0.7842
99.7795	11.3000	0.7517
99.8643	12.6500	0.7953
99.9491	11.0500	0.7433
100.0339	11.1000	0.7450
100.1187	12.3500	0.7858
100.2035	10.0500	0.7089
100.2883	10.7000	0.7314
100.3731	11.5000	0.7583
100.4579	11.4356	0.7524
100.5427	10.5446	0.7225
100.6275	9.6535	0.6913
100.7123	11.0891	0.7409
100.7971	11.1881	0.7442
100.8819	11.2871	0.7475
100.9667	12.1287	0.7749
101.0515	11.6337	0.7589
101.1363	10.8416	0.7326
101.2211	10.7921	0.7309
101.3059	10.8911	0.7343
101.3907	9.7525	0.6948
101.4755	10.9901	0.7376
101.5603	10.6931	0.7276
101.6451	12.4752	0.7859
101.7299	11.1881	0.7442
101.8147	12.2772	0.7796
101.8995	11.8750	0.7556
101.9843	10.4327	0.7082
102.0691	11.2981	0.7370
102.1539	12.0192	0.7602
102.2387	11.8269	0.7541
102.3234	11.2019	0.7339
102.4082	10.2885	0.7033
102.4930	13.0769	0.7929
102.5778	13.0769	0.7929
102.6626	12.3558	0.7707
102.7474	11.9712	0.7586
102.8322	10.9615	0.7259
102.9170	11.3942	0.7401
103.0018	11.2019	0.7339
103.0866	11.0096	0.7275
103.1714	11.3462	0.7386
103.2562	11.0952	0.7269
103.3410	12.3333	0.7664
103.4258	11.6190	0.7438
103.5106	12.4286	0.7693
103.5954	13.7143	0.8081
103.6802	11.7143	0.7469
103.7650	14.1905	0.8220
103.8498	12.1429	0.7604
103.9346	11.5714	0.7423
104.0194	13.7143	0.8081
104.1042	12.9524	0.7854
104.1890	12.0476	0.7574
104.2738	11.6190	0.7438
104.3586	12.0000	0.7559
104.4434	13.8095	0.8109
104.5282	11.3333	0.7346
104.6130	12.2381	0.7634
104.6978	13.4434	0.7963
104.7826	13.5849	0.8005
104.8674	12.7778	0.7691
104.9521	13.7037	0.7965
105.0369	13.1944	0.7816
105.1217	12.5926	0.7635
105.2065	13.7963	0.7992
105.2913	12.3611	0.7565
105.3761	10.7870	0.7067
105.4609	11.6667	0.7349
105.5457	12.1296	0.7494
105.6305	13.7037	0.7965
105.7153	13.2870	0.7843
105.8001	14.1204	0.8085
105.8849	11.4352	0.7276
105.9697	12.6389	0.7649
106.0545	13.7500	0.7979
106.1393	11.8349	0.7368
106.2241	12.9817	0.7717
106.3089	13.0909	0.7714
106.3937	12.4545	0.7524
106.4785	12.4545	0.7524
106.5633	12.3182	0.7483
106.6481	13.0455	0.7700
106.7329	13.4545	0.7820
106.8177	12.9545	0.7674
106.9025	13.0455	0.7700
106.9873	11.8636	0.7343
107.0721	14.0455	0.7990
107.1569	13.0000	0.7687
107.2417	12.3182	0.7483
107.3265	12.4545	0.7524
107.4113	13.3636	0.7794
107.4960	13.1364	0.7727
107.5808	13.7273	0.7899
107.6656	12.3182	0.7483
107.7504	12.7027	0.7564
107.8352	12.7928	0.7591
107.9200	12.7928	0.7591
108.0048	13.9189	0.7918
108.0896	13.6937	0.7854
108.1744	13.0631	0.7671
108.2592	11.9820	0.7347
108.3440	11.9369	0.7333
108.4288	12.7477	0.7578
108.5136	14.5045	0.8083
108.5984	12.5225	0.7511
108.6832	12.7928	0.7591
108.7680	13.6239	0.7905
108.8528	12.8571	0.7825
108.9376	11.6019	0.7505
109.0224	12.8000	0.8000
109.1072	12.8646	0.8186
109.1920	13.5638	0.8494
109.2768	12.4176	0.8260
109.3616	14.9438	0.9163
109.4464	12.4118	0.8545
109.5312	13.3735	0.8976
109.6160	13.3125	0.9122
109.7008	14.1558	0.9588
109.7856	13.3784	0.9508
109.8704	13.8571	0.9949
109.9552	15.0000	1.0502
109.9834	13.2090	0.9928