File: XRD/Homogenization/9_W0.40Ta0.40Ti0.20_HIP1800C_8h_txt.txt
1.544427
20.0707	42.2222	2.1660
20.1555	42.5556	2.1745
20.2403	38.7778	2.0757
20.3251	43.5556	2.1999
20.4099	41.5556	2.1488
20.4946	42.8889	2.1830
20.5794	44.8889	2.2333
20.6642	44.7778	2.2305
20.7490	40.1053	2.0547
20.8338	42.5263	2.1158
20.9186	37.3684	1.9833
21.0034	40.9474	2.0761
21.0882	43.6842	2.1444
21.1730	41.3684	2.0868
21.2578	39.1579	2.0302
21.3426	37.4000	1.9339
21.4274	37.4000	1.9339
21.5122	35.1000	1.8735
21.5970	36.2000	1.9026
21.6818	36.6000	1.9131
21.7666	36.3000	1.9053
21.8514	34.7000	1.8628
21.9362	39.0000	1.9748
22.0210	33.9000	1.8412
22.1058	38.6000	1.9647
22.1906	34.8000	1.8655
22.2754	35.4000	1.8815
22.3602	33.3000	1.8248
22.4450	33.8000	1.8385
22.5298	34.1000	1.8466
22.6146	32.7000	1.8083
22.6994	33.9000	1.8412
22.7842	33.9000	1.8412
22.8690	30.3000	1.7407
22.9538	35.2000	1.8762
23.0385	31.2000	1.7664
23.1233	32.9000	1.8138
23.2081	31.9000	1.7861
23.2929	31.7000	1.7804
23.3777	30.3000	1.7407
23.4625	29.7000	1.7234
23.5473	33.2000	1.8221
23.6321	28.9000	1.7000
23.7169	32.5000	1.8028
23.8017	31.8000	1.7833
23.8865	32.6000	1.8055
23.9713	28.1000	1.6763
24.0561	30.5000	1.7464
24.1409	31.3000	1.7692
24.2257	30.7000	1.7521
24.3105	29.9000	1.7292
24.3953	30.6000	1.7493
24.4801	27.5000	1.6583
24.5649	31.4000	1.7720
24.6497	30.0000	1.7321
24.7345	32.4000	1.8000
24.8193	27.6000	1.6613
24.9041	31.0000	1.7607
24.9889	28.3000	1.6823
25.0737	28.4000	1.6852
25.1585	28.6667	1.6523
25.2433	28.4762	1.6468
25.3281	27.0476	1.6050
25.4129	27.5238	1.6190
25.4977	28.1905	1.6385
25.5824	26.4762	1.5879
25.6672	29.5238	1.6768
25.7520	26.1818	1.5428
25.8368	26.4545	1.5508
25.9216	28.4545	1.6083
26.0064	24.9091	1.5048
26.0912	24.2727	1.4855
26.1760	26.0000	1.5374
26.2608	29.0909	1.6262
26.3456	26.0909	1.5401
26.4304	26.5455	1.5535
26.5152	22.3636	1.4259
26.6000	24.6364	1.4966
26.6848	25.0909	1.5103
26.7696	25.3636	1.5185
26.8544	26.4545	1.5508
26.9392	25.3636	1.5185
27.0240	25.9091	1.5347
27.1088	22.8182	1.4403
27.1936	25.5455	1.5239
27.2784	22.7273	1.4374
27.3632	25.0909	1.5103
27.4480	22.2727	1.4230
27.5328	24.9091	1.5048
27.6176	25.4545	1.5212
27.7024	24.0909	1.4799
27.7872	24.3636	1.4882
27.8720	22.4545	1.4287
27.9568	22.6364	1.4345
28.0416	20.6364	1.3697
28.1263	22.9091	1.4431
28.2111	24.0000	1.4771
28.2959	22.7273	1.4374
28.3807	20.0000	1.3484
28.4655	23.1818	1.4517
28.5503	24.6364	1.4966
28.6351	20.7273	1.3727
28.7199	22.3636	1.4259
28.8047	23.4545	1.4602
28.8895	20.9091	1.3787
28.9743	23.4545	1.4602
29.0591	21.8182	1.4084
29.1439	20.3636	1.3606
29.2287	21.2727	1.3906
29.3135	21.0909	1.3847
29.3983	23.1818	1.4517
29.4831	21.1304	1.3555
29.5679	20.6087	1.3387
29.6527	19.3043	1.2956
29.7375	21.6522	1.3722
29.8223	20.6087	1.3387
29.9071	20.3478	1.3302
29.9919	20.8696	1.3471
30.0767	20.2609	1.3273
30.1615	20.4167	1.3044
30.2463	22.0833	1.3566
30.3311	19.3333	1.2693
30.4159	20.0000	1.2910
30.5007	18.5833	1.2444
30.5855	19.7500	1.2829
30.6702	20.2500	1.2990
30.7550	20.3333	1.3017
30.8398	21.9167	1.3514
30.9246	19.0000	1.2583
31.0094	19.7500	1.2829
31.0942	20.4167	1.3044
31.1790	18.1667	1.2304
31.2638	21.5000	1.3385
31.3486	18.5000	1.2416
31.4334	20.8333	1.3176
31.5182	18.5833	1.2444
31.6030	18.9167	1.2555
31.6878	21.0833	1.3255
31.7726	19.1667	1.2638
31.8574	19.5833	1.2775
31.9422	16.2500	1.1637
32.0270	20.0000	1.2910
32.1118	19.5833	1.2775
32.1966	19.4167	1.2720
32.2814	20.5000	1.3070
32.3662	17.5833	1.2105
32.4510	18.9167	1.2555
32.5358	19.1667	1.2638
32.6206	18.2500	1.2332
32.7054	19.6667	1.2802
32.7902	19.5000	1.2748
32.8750	16.9167	1.1873
32.9598	16.4167	1.1696
33.0446	15.0000	1.1180
33.1294	18.5833	1.2444
33.2142	17.6667	1.2134
33.2989	19.0833	1.2611
33.3837	17.3333	1.2019
33.4685	18.5000	1.2416
33.5533	16.7500	1.1815
33.6381	16.4167	1.1696
33.7229	16.5833	1.1756
33.8077	17.4167	1.2047
33.8925	16.2400	1.1398
33.9773	15.9200	1.1285
34.0621	19.6000	1.2522
34.1469	17.6000	1.1866
34.2317	15.9200	1.1285
34.3165	15.6800	1.1200
34.4013	17.5200	1.1839
34.4861	15.5200	1.1143
34.5709	15.6154	1.0960
34.6557	16.0769	1.1121
34.7405	17.0000	1.1435
34.8253	17.2308	1.1513
34.9101	16.6923	1.1331
34.9949	13.3846	1.0147
35.0797	15.2308	1.0824
35.1645	19.2308	1.2163
35.2493	16.0000	1.1094
35.3341	18.0000	1.1767
35.4189	15.7692	1.1014
35.5037	14.6154	1.0603
35.5885	15.0000	1.0742
35.6733	15.2308	1.0824
35.7581	17.1538	1.1487
35.8428	16.3846	1.1227
35.9276	16.5385	1.1279
36.0124	15.0769	1.0769
36.0972	15.3846	1.0879
36.1820	15.4615	1.0906
36.2668	14.0000	1.0377
36.3516	12.3846	0.9760
36.4364	15.9231	1.1067
36.5212	15.0000	1.0742
36.6060	16.5385	1.1279
36.6908	15.5385	1.0933
36.7756	13.6923	1.0263
36.8604	14.3846	1.0519
36.9452	14.4615	1.0547
37.0300	15.7692	1.1014
37.1148	14.7692	1.0659
37.1996	13.3077	1.0118
37.2844	17.1538	1.1487
37.3692	15.0769	1.0769
37.4540	17.0000	1.1435
37.5388	14.1538	1.0434
37.6236	16.0000	1.1094
37.7084	15.7692	1.1014
37.7932	16.0000	1.1094
37.8780	18.3077	1.1867
37.9628	16.8462	1.1384
38.0476	20.4615	1.2546
38.1324	20.0000	1.2403
38.2172	20.1538	1.2451
38.3020	21.7037	1.2679
38.3867	21.3333	1.2571
38.4715	23.4074	1.3168
38.5563	25.9259	1.3858
38.6411	26.7407	1.4074
38.7259	30.8889	1.5126
38.8107	39.1852	1.7037
38.8955	52.6667	1.9752
38.9803	67.4815	2.2358
39.0651	96.8571	2.6303
39.1499	147.0714	3.2412
39.2347	214.9286	3.9182
39.3195	293.0000	4.5748
39.4043	371.7857	5.1533
39.4891	342.2857	4.9446
39.5739	245.2857	4.1857
39.6587	155.5000	3.3327
39.7435	96.5000	2.6254
39.8283	64.1429	2.1405
39.9131	45.4286	1.8014
39.9979	36.2857	1.6099
40.0827	29.0714	1.4410
40.1675	24.5714	1.3248
40.2523	23.2143	1.2877
40.3371	20.7857	1.2185
40.4219	19.9286	1.1931
40.5067	19.7143	1.1867
40.5915	19.8571	1.1910
40.6763	16.7857	1.0950
40.7611	15.8571	1.0643
40.8459	15.8571	1.0643
40.9306	15.7143	1.0595
41.0154	15.7143	1.0595
41.1002	15.0714	1.0376
41.1850	14.8571	1.0302
41.2698	15.2857	1.0449
41.3546	12.6429	0.9503
41.4394	15.5714	1.0546
41.5242	14.3571	1.0127
41.6090	15.2857	1.0449
41.6938	15.0000	1.0351
41.7786	14.4286	1.0152
41.8634	13.3571	0.9768
41.9482	14.1429	1.0051
42.0330	14.2857	1.0102
42.1178	13.5000	0.9820
42.2026	11.7143	0.9147
42.2874	14.5000	1.0177
42.3722	11.0714	0.8893
42.4570	13.0714	0.9663
42.5418	11.8571	0.9203
42.6266	12.6207	0.9329
42.7114	12.8966	0.9431
42.7962	12.9655	0.9456
42.8810	13.6552	0.9704
42.9658	14.2069	0.9898
43.0506	13.1034	0.9506
43.1354	12.4138	0.9253
43.2202	10.6207	0.8558
43.3050	13.0345	0.9481
43.3898	12.4828	0.9278
43.4745	12.9333	0.9286
43.5593	13.6667	0.9545
43.6441	13.0000	0.9309
43.7289	13.5333	0.9499
43.8137	12.0000	0.8944
43.8985	13.2000	0.9381
43.9833	11.5333	0.8769
44.0681	13.1333	0.9357
44.1529	11.0667	0.8589
44.2377	11.5333	0.8769
44.3225	13.4667	0.9475
44.4073	12.3333	0.9068
44.4921	12.6667	0.9189
44.5769	13.2000	0.9381
44.6617	11.8000	0.8869
44.7465	12.5333	0.9141
44.8313	12.5333	0.9141
44.9161	11.0667	0.8589
45.0009	11.6000	0.8794
45.0857	10.6000	0.8406
45.1705	10.6667	0.8433
45.2553	11.9333	0.8919
45.3401	11.3333	0.8692
45.4249	11.8667	0.8894
45.5097	12.2667	0.9043
45.5945	10.9333	0.8537
45.6793	11.5333	0.8769
45.7641	11.6667	0.8819
45.8489	12.1333	0.8994
45.9337	12.0667	0.8969
46.0184	10.7333	0.8459
46.1032	13.2667	0.9404
46.1880	10.6000	0.8406
46.2728	11.0000	0.8563
46.3576	12.1333	0.8994
46.4424	12.0000	0.8944
46.5272	12.0000	0.8944
46.6120	10.7742	0.8337
46.6968	11.8065	0.8728
46.7816	10.9032	0.8387
46.8664	11.4839	0.8608
46.9512	10.6452	0.8287
47.0360	11.4839	0.8608
47.1208	10.4516	0.8212
47.2056	10.6452	0.8287
47.2904	9.4194	0.7796
47.3752	10.7742	0.8337
47.4600	12.4375	0.8817
47.5448	9.9375	0.7881
47.6296	9.6875	0.7781
47.7144	10.9375	0.8268
47.7992	9.6875	0.7781
47.8840	10.2500	0.8004
47.9688	10.2500	0.8004
48.0536	9.5000	0.7706
48.1384	10.9375	0.8268
48.2232	10.8750	0.8244
48.3080	10.4375	0.8077
48.3928	10.2500	0.8004
48.4776	10.5000	0.8101
48.5624	10.1250	0.7955
48.6471	11.1250	0.8339
48.7319	11.0625	0.8315
48.8167	9.5000	0.7706
48.9015	10.1875	0.7979
48.9863	9.9375	0.7881
49.0711	9.6875	0.7781
49.1559	10.8125	0.8221
49.2407	10.9375	0.8268
49.3255	10.3125	0.8028
49.4103	9.9375	0.7881
49.4951	11.2500	0.8385
49.5799	10.7500	0.8197
49.6647	11.3125	0.8409
49.7495	10.1875	0.7979
49.8343	10.4375	0.8077
49.9191	9.0625	0.7526
50.0039	10.0000	0.7906
50.0887	10.1875	0.7979
50.1735	10.0000	0.7906
50.2583	10.5000	0.8101
50.3431	8.6875	0.7369
50.4279	9.5625	0.7731
50.5127	9.1875	0.7578
50.5975	9.3939	0.7545
50.6823	11.4545	0.8332
50.7671	8.6061	0.7222
50.8519	11.3939	0.8310
50.9367	8.6061	0.7222
51.0215	9.3939	0.7545
51.1063	10.4242	0.7948
51.1910	9.6970	0.7666
51.2758	9.9394	0.7761
51.3606	10.6667	0.8040
51.4454	9.8788	0.7738
51.5302	9.8824	0.7624
51.6150	10.3529	0.7804
51.6998	9.9412	0.7647
51.7846	10.7059	0.7936
51.8694	9.1765	0.7347
51.9542	10.7059	0.7936
52.0390	9.0000	0.7276
52.1238	11.1176	0.8087
52.2086	11.0000	0.8044
52.2934	10.8824	0.8001
52.3782	9.1765	0.7347
52.4630	8.7647	0.7180
52.5478	9.0000	0.7276
52.6326	9.9412	0.7647
52.7174	10.6471	0.7914
52.8022	9.1765	0.7347
52.8870	10.0000	0.7670
52.9718	11.6471	0.8277
53.0566	10.7647	0.7957
53.1414	10.5294	0.7870
53.2262	10.0000	0.7670
53.3110	10.0000	0.7670
53.3958	9.5294	0.7487
53.4806	10.0000	0.7670
53.5654	9.6471	0.7533
53.6502	10.0588	0.7692
53.7349	11.3529	0.8172
53.8197	9.4706	0.7464
53.9045	8.2353	0.6960
53.9893	9.4118	0.7441
54.0741	9.9412	0.7647
54.1589	9.1765	0.7347
54.2437	10.2941	0.7782
54.3285	8.9412	0.7252
54.4133	8.4706	0.7059
54.4981	9.1765	0.7347
54.5829	9.4286	0.7340
54.6677	10.0571	0.7581
54.7525	10.4571	0.7730
54.8373	10.9143	0.7897
54.9221	9.8857	0.7516
55.0069	8.8571	0.7114
55.0917	11.0286	0.7939
55.1765	9.4286	0.7340
55.2613	9.4286	0.7340
55.3461	10.6286	0.7793
55.4309	10.2286	0.7645
55.5157	9.3333	0.7201
55.6005	11.6667	0.8051
55.6853	11.2222	0.7896
55.7701	10.4444	0.7617
55.8549	12.7222	0.8407
55.9397	11.8333	0.8108
56.0245	11.8333	0.8108
56.1093	12.9444	0.8480
56.1941	16.3889	0.9542
56.2788	16.1111	0.9461
56.3636	17.7222	0.9923
56.4484	22.7778	1.1249
56.5332	27.2778	1.2310
56.6180	32.8889	1.3517
56.7028	42.5000	1.5366
56.7876	51.8889	1.6979
56.8724	56.9444	1.7786
56.9572	65.6667	1.9100
57.0420	66.3889	1.9205
57.1268	58.0000	1.7951
57.2116	44.7778	1.5772
57.2964	36.3333	1.4207
57.3812	22.8333	1.1263
57.4660	19.5000	1.0408
57.5508	14.3889	0.8941
57.6356	14.2222	0.8889
57.7204	13.1667	0.8553
57.8052	12.6667	0.8389
57.8900	11.7778	0.8089
57.9748	11.2222	0.7896
58.0596	10.8333	0.7758
58.1444	9.6111	0.7307
58.2292	12.0556	0.8184
58.3140	10.0000	0.7454
58.3988	9.5556	0.7286
58.4836	10.2703	0.7451
58.5684	9.5676	0.7191
58.6532	9.5676	0.7191
58.7380	9.2432	0.7068
58.8227	9.8919	0.7312
58.9075	9.0811	0.7006
58.9923	9.3514	0.7110
59.0771	8.5946	0.6816
59.1619	8.9730	0.6964
59.2467	8.0541	0.6598
59.3315	9.1351	0.7027
59.4163	9.5135	0.7171
59.5011	9.2432	0.7068
59.5859	10.2105	0.7331
59.6707	9.5263	0.7081
59.7555	8.6842	0.6761
59.8403	10.4211	0.7406
59.9251	8.6316	0.6740
60.0099	10.4211	0.7406
60.0947	11.8947	0.7912
60.1795	10.1579	0.7312
60.2643	10.0526	0.7274
60.3491	10.4737	0.7425
60.4339	10.1053	0.7293
60.5187	11.0526	0.7627
60.6035	9.9474	0.7236
60.6883	9.2632	0.6982
60.7731	10.1053	0.7293
60.8579	9.8421	0.7197
60.9427	9.4211	0.7042
61.0275	10.0000	0.7255
61.1123	9.4737	0.7061
61.1971	9.3684	0.7022
61.2819	10.8947	0.7572
61.3667	9.2632	0.6982
61.4514	8.7895	0.6801
61.5362	9.5263	0.7081
61.6210	9.8421	0.7197
61.7058	8.6842	0.6761
61.7906	8.1053	0.6531
61.8754	9.2105	0.6963
61.9602	7.9474	0.6467
62.0450	9.6316	0.7120
62.1298	9.5263	0.7081
62.2146	8.7895	0.6801
62.2994	10.4211	0.7406
62.3842	10.0000	0.7255
62.4690	8.8718	0.6745
62.5538	10.1538	0.7216
62.6386	9.5897	0.7013
62.7234	9.3846	0.6937
62.8082	8.7179	0.6686
62.8930	9.6923	0.7050
62.9778	8.8718	0.6745
63.0626	9.4359	0.6956
63.1474	8.2564	0.6507
63.2322	9.3333	0.6918
63.3170	7.3333	0.6132
63.4018	8.0000	0.6405
63.4866	8.2051	0.6487
63.5714	9.0000	0.6708
63.6562	8.3902	0.6398
63.7410	8.0976	0.6285
63.8258	8.5854	0.6471
63.9106	9.9024	0.6950
63.9953	8.8293	0.6563
64.0801	9.5122	0.6812
64.1649	8.9756	0.6617
64.2497	8.2927	0.6360
64.3345	9.5122	0.6812
64.4193	9.3171	0.6742
64.5041	8.9756	0.6617
64.5889	8.2927	0.6360
64.6737	8.0000	0.6247
64.7585	8.1463	0.6304
64.8433	8.6047	0.6326
64.9281	8.6047	0.6326
65.0129	9.3953	0.6611
65.0977	8.3721	0.6240
65.1825	9.1628	0.6528
65.2673	8.7907	0.6394
65.3521	8.6047	0.6326
65.4369	8.6512	0.6343
65.5217	9.8140	0.6756
65.6065	8.4186	0.6257
65.6913	8.4651	0.6275
65.7761	9.7674	0.6740
65.8609	8.3721	0.6240
65.9457	8.5116	0.6292
66.0305	8.5778	0.6174
66.1153	9.5111	0.6502
66.2001	8.9333	0.6301
66.2849	9.0667	0.6348
66.3697	9.3333	0.6441
66.4545	8.7556	0.6238
66.5392	8.7111	0.6222
66.6240	7.8222	0.5896
66.7088	8.8889	0.6285
66.7936	8.9333	0.6301
66.8784	9.0222	0.6332
66.9632	7.7333	0.5863
67.0480	8.8444	0.6270
67.1328	9.6444	0.6547
67.2176	8.7826	0.6179
67.3024	8.9362	0.6167
67.3872	8.6809	0.6078
67.4720	8.9787	0.6181
67.5568	9.4043	0.6326
67.6416	9.4043	0.6326
67.7264	9.5745	0.6383
67.8112	8.8511	0.6137
67.8960	8.6383	0.6063
67.9808	9.3617	0.6312
68.0656	8.8936	0.6152
68.1504	8.4681	0.6003
68.2352	8.4681	0.6003
68.3200	10.0000	0.6455
68.4048	9.0000	0.6124
68.4896	10.5714	0.6569
68.5744	8.9388	0.6040
68.6592	9.7551	0.6310
68.7440	9.5918	0.6257
68.8288	9.7959	0.6323
68.9136	11.5102	0.6854
68.9984	9.4694	0.6217
69.0831	10.3265	0.6492
69.1679	10.4898	0.6543
69.2527	9.0612	0.6081
69.3375	8.9796	0.6054
69.4223	10.2041	0.6454
69.5071	9.0800	0.6027
69.5919	9.2400	0.6079
69.6767	10.7200	0.6548
69.7615	11.1765	0.6620
69.8463	11.3333	0.6667
69.9311	10.7451	0.6491
70.0159	11.3725	0.6678
70.1007	11.0196	0.6574
70.1855	10.2745	0.6348
70.2703	11.6863	0.6770
70.3551	12.0392	0.6871
70.4399	12.3137	0.6949
70.5247	13.8824	0.7378
70.6095	16.0784	0.7941
70.6943	17.0000	0.8086
70.7791	19.2308	0.8600
70.8639	24.1538	0.9638
70.9487	27.7358	1.0231
71.0335	35.0943	1.1508
71.1183	43.8868	1.2869
71.2031	54.0755	1.4285
71.2879	64.8679	1.5646
71.3727	72.6792	1.6561
71.4575	82.8302	1.7680
71.5423	87.2453	1.8145
71.6270	79.7358	1.7346
71.7118	70.9434	1.6362
71.7966	55.8113	1.4512
71.8814	43.4074	1.2679
71.9662	32.6296	1.0993
72.0510	23.8148	0.9392
72.1358	20.8519	0.8788
72.2206	17.8909	0.8066
72.3054	16.6182	0.7774
72.3902	16.3273	0.7705
72.4750	13.1636	0.6919
72.5598	12.3273	0.6695
72.6446	13.3818	0.6976
72.7294	12.1091	0.6636
72.8142	11.6364	0.6505
72.8990	10.2909	0.6117
72.9838	11.7818	0.6545
73.0686	11.6071	0.6438
73.1534	12.0714	0.6566
73.2382	12.5000	0.6682
73.3230	10.5000	0.6124
73.4078	10.0000	0.5923
73.4926	10.7368	0.6138
73.5774	9.7544	0.5850
73.6622	10.5263	0.6077
73.7470	9.4386	0.5755
73.8318	9.1228	0.5658
73.9166	11.0175	0.6218
74.0014	10.5263	0.6077
74.0862	10.3158	0.6016
74.1709	9.8276	0.5821
74.2557	10.4828	0.6012
74.3405	10.4828	0.6012
74.4253	10.9310	0.6139
74.5101	9.6207	0.5760
74.5949	9.5517	0.5739
74.6797	10.2034	0.5881
74.7645	9.3898	0.5642
74.8493	11.3559	0.6204
74.9341	10.1356	0.5862
75.0189	10.2373	0.5891
75.1037	9.6949	0.5733
75.1885	10.0000	0.5822
75.2733	10.9831	0.6102
75.3581	9.7667	0.5706
75.4429	9.9667	0.5764
75.5277	9.9000	0.5745
75.6125	8.3667	0.5281
75.6973	9.1667	0.5528
75.7821	9.9333	0.5754
75.8669	9.3770	0.5545
75.9517	9.8689	0.5688
76.0365	9.6066	0.5612
76.1213	9.3770	0.5545
76.2061	9.9344	0.5707
76.2909	10.6557	0.5911
76.3757	9.8689	0.5688
76.4605	10.0656	0.5745
76.5453	8.8710	0.5349
76.6301	9.5161	0.5541
76.7149	9.6452	0.5578
76.7996	8.5806	0.5261
76.8844	9.2903	0.5474
76.9692	10.0968	0.5707
77.0540	9.2581	0.5465
77.1388	9.7143	0.5553
77.2236	8.9524	0.5331
77.3084	9.8413	0.5589
77.3932	9.6825	0.5544
77.4780	9.5556	0.5508
77.5628	9.5556	0.5508
77.6476	9.7143	0.5553
77.7324	8.8438	0.5257
77.8172	9.3438	0.5404
77.9020	9.1563	0.5349
77.9868	8.9375	0.5285
78.0716	9.7813	0.5529
78.1564	9.9375	0.5573
78.2412	9.4063	0.5422
78.3260	10.0923	0.5573
78.4108	9.1385	0.5303
78.4956	9.1077	0.5294
78.5804	9.4769	0.5400
78.6652	9.6615	0.5452
78.7500	10.2462	0.5615
78.8348	8.7692	0.5194
78.9196	9.3030	0.5310
79.0044	8.6970	0.5134
79.0892	8.7576	0.5152
79.1740	9.0606	0.5240
79.2588	9.5455	0.5378
79.3435	10.0909	0.5530
79.4283	9.9697	0.5496
79.5131	8.8485	0.5178
79.5979	8.9254	0.5162
79.6827	9.8806	0.5431
79.7675	8.8060	0.5127
79.8523	9.3433	0.5281
79.9371	9.5224	0.5332
80.0219	8.6269	0.5075
80.1067	9.6471	0.5327
80.1915	9.9412	0.5407
80.2763	9.9118	0.5399
80.3611	9.1765	0.5195
80.4459	9.2353	0.5212
80.5307	9.9412	0.5407
80.6155	9.5588	0.5302
80.7003	8.5882	0.5026
80.7851	9.5652	0.5265
80.8699	9.1014	0.5136
80.9547	9.4783	0.5241
81.0395	9.0145	0.5112
81.1243	9.4493	0.5233
81.2091	10.1143	0.5376
81.2939	10.0286	0.5353
81.3787	9.1429	0.5111
81.4635	9.2857	0.5151
81.5483	9.6286	0.5245
81.6331	9.3714	0.5175
81.7179	8.7714	0.5006
81.8027	10.1714	0.5391
81.8874	10.6857	0.5525
81.9722	9.7429	0.5276
82.0570	9.8592	0.5270
82.1418	9.0986	0.5063
82.2266	10.0282	0.5315
82.3114	9.4648	0.5163
82.3962	9.6111	0.5167
82.4810	10.1111	0.5300
82.5658	11.0278	0.5535
82.6506	10.4722	0.5393
82.7354	10.2222	0.5329
82.8202	10.0278	0.5278
82.9050	9.5278	0.5145
82.9898	10.3611	0.5365
83.0746	10.2222	0.5329
83.1594	11.1111	0.5556
83.2442	10.8493	0.5452
83.3290	10.9041	0.5466
83.4138	11.1507	0.5527
83.4986	10.6027	0.5390
83.5834	11.7027	0.5624
83.6682	12.3243	0.5771
83.7530	10.4595	0.5317
83.8378	12.3784	0.5784
83.9226	12.0541	0.5708
84.0074	12.3243	0.5771
84.0922	13.6486	0.6074
84.1770	14.3514	0.6228
84.2618	15.5405	0.6481
84.3466	16.5946	0.6697
84.4313	18.1351	0.7001
84.5161	20.4000	0.7376
84.6009	21.6000	0.7589
84.6857	23.0133	0.7834
84.7705	24.8158	0.8081
84.8553	25.8684	0.8251
84.9401	26.2368	0.8309
85.0249	25.8947	0.8255
85.1097	25.5000	0.8192
85.1945	22.0789	0.7622
85.2793	20.8421	0.7406
85.3641	16.8421	0.6657
85.4489	14.8158	0.6244
85.5337	14.1053	0.6093
85.6185	12.4737	0.5729
85.7033	12.7273	0.5750
85.7881	13.4286	0.5906
85.8729	11.6623	0.5504
85.9577	11.4872	0.5427
86.0425	11.2308	0.5366
86.1273	11.5385	0.5439
86.2121	9.4615	0.4925
86.2969	10.5897	0.5211
86.3817	10.5897	0.5211
86.4665	10.6410	0.5223
86.5513	11.2564	0.5372
86.6361	11.0513	0.5323
86.7209	11.7179	0.5481
86.8057	10.5897	0.5211
86.8905	10.4557	0.5145
86.9752	11.4684	0.5388
87.0600	10.4250	0.5105
87.1448	11.1750	0.5286
87.2296	10.6750	0.5166
87.3144	10.5000	0.5123
87.3992	11.0500	0.5256
87.4840	10.6750	0.5166
87.5688	11.6000	0.5385
87.6536	11.0000	0.5244
87.7384	10.3250	0.5081
87.8232	11.6250	0.5391
87.9080	10.4000	0.5099
87.9928	11.2500	0.5303
88.0776	11.4750	0.5356
88.1624	10.9877	0.5209
88.2472	11.9268	0.5393
88.3320	11.5610	0.5310
88.4168	10.4634	0.5052
88.5016	11.3171	0.5254
88.5864	11.0976	0.5203
88.6712	11.8537	0.5377
88.7560	10.9756	0.5174
88.8408	11.4634	0.5288
88.9256	11.2683	0.5242
89.0104	11.3415	0.5259
89.0952	11.3171	0.5254
89.1800	11.8537	0.5377
89.2648	12.4634	0.5513
89.3496	11.5181	0.5268
89.4344	11.3571	0.5200
89.5192	11.5000	0.5233
89.6039	11.7381	0.5287
89.6887	11.9762	0.5340
89.7735	12.3333	0.5419
89.8583	13.1905	0.5604
89.9431	11.6190	0.5260
90.0279	13.0000	0.5563
90.1127	12.4762	0.5450
90.1975	12.1190	0.5372
90.2823	11.7619	0.5292
90.3671	12.8333	0.5528
90.4519	12.3571	0.5424
90.5367	11.8571	0.5313
90.6215	12.0000	0.5283
90.7063	13.0698	0.5513
90.7911	11.9070	0.5262
90.8759	12.0930	0.5303
90.9607	13.2558	0.5552
91.0455	11.6512	0.5205
91.1303	13.0000	0.5498
91.2151	12.3721	0.5364
91.2999	12.4186	0.5374
91.3847	11.9535	0.5272
91.4695	14.0000	0.5706
91.5543	12.1860	0.5323
91.6391	12.8605	0.5469
91.7239	12.7907	0.5454
91.8087	12.2727	0.5281
91.8935	13.4773	0.5534
91.9783	13.4091	0.5520
92.0631	12.3182	0.5291
92.1478	12.3636	0.5301
92.2326	13.5909	0.5558
92.3174	13.3182	0.5502
92.4022	13.8864	0.5618
92.4870	14.8636	0.5812
92.5718	14.2500	0.5691
92.6566	14.6591	0.5772
92.7414	12.8409	0.5402
92.8262	13.2955	0.5497
92.9110	13.7727	0.5595
92.9958	14.0899	0.5627
93.0806	13.4667	0.5470
93.1654	13.6889	0.5515
93.2502	14.4889	0.5674
93.3350	14.3556	0.5648
93.4198	14.0000	0.5578
93.5046	14.3333	0.5644
93.5894	13.4667	0.5470
93.6742	13.2000	0.5416
93.7590	13.6444	0.5506
93.8438	14.9556	0.5765
93.9286	14.7333	0.5722
94.0134	14.9556	0.5765
94.0982	15.2747	0.5794
94.1830	14.6593	0.5676
94.2678	13.4348	0.5404
94.3526	14.4565	0.5606
94.4374	13.9783	0.5512
94.5222	14.7391	0.5661
94.6070	14.7609	0.5665
94.6917	14.3478	0.5585
94.7765	15.4783	0.5801
94.8613	15.4130	0.5788
94.9461	16.4348	0.5977
95.0309	15.7391	0.5849
95.1157	15.8043	0.5862
95.2005	15.9565	0.5890
95.2853	15.3118	0.5738
95.3701	15.6774	0.5806
95.4549	15.3118	0.5738
95.5397	16.2553	0.5881
95.6245	16.8936	0.5995
95.7093	15.7872	0.5796
95.7941	16.1064	0.5854
95.8789	15.9149	0.5819
95.9637	16.6596	0.5954
96.0485	15.8298	0.5803
96.1333	16.7872	0.5976
96.2181	16.7447	0.5969
96.3029	17.1277	0.6037
96.3877	16.7234	0.5965
96.4725	18.3789	0.6220
96.5573	19.0737	0.6337
96.6421	19.3684	0.6386
96.7269	18.5000	0.6208
96.8117	19.7292	0.6411
96.8965	21.0000	0.6614
96.9813	20.5625	0.6545
97.0661	22.5208	0.6850
97.1509	22.5208	0.6850
97.2356	25.6875	0.7315
97.3204	25.8542	0.7339
97.4052	27.9375	0.7629
97.4900	29.0833	0.7784
97.5748	32.4375	0.8221
97.6596	34.5773	0.8444
97.7444	37.9794	0.8849
97.8292	39.5876	0.9035
97.9140	41.2784	0.9226
97.9988	41.3673	0.9188
98.0836	40.8980	0.9136
98.1684	40.2653	0.9065
98.2532	36.4286	0.8622
98.3380	35.2857	0.8486
98.4228	31.0612	0.7962
98.5076	28.4898	0.7625
98.5924	25.8571	0.7264
98.6772	23.1837	0.6878
98.7620	21.7959	0.6669
98.8468	20.9796	0.6543
98.9316	20.7959	0.6515
99.0164	18.2020	0.6064
99.1012	18.3838	0.6094
99.1860	18.7200	0.6119
99.2708	18.3000	0.6050
99.3556	18.7000	0.6116
99.4404	18.3800	0.6063
99.5252	17.7600	0.5960
99.6100	17.3200	0.5886
99.6948	16.6600	0.5772
99.7795	18.3000	0.6050
99.8643	17.6600	0.5943
99.9491	18.6600	0.6109
100.0339	17.4000	0.5899
100.1187	17.0400	0.5838
100.2035	17.6600	0.5943
100.2883	16.6800	0.5776
100.3731	17.6200	0.5936
100.4579	17.8431	0.5915
100.5427	18.5882	0.6037
100.6275	16.4510	0.5680
100.7123	16.9804	0.5770
100.7971	17.2549	0.5817
100.8819	16.8235	0.5743
100.9667	17.4510	0.5850
101.0515	18.4314	0.6012
101.1363	17.0196	0.5777
101.2211	18.3529	0.5999
101.3059	16.7843	0.5737
101.3907	17.3529	0.5833
101.4755	18.1373	0.5963
101.5603	18.4510	0.6015
101.6451	17.1765	0.5803
101.7299	18.4118	0.6008
101.8147	17.8431	0.5915
101.8995	18.5769	0.5977
101.9843	18.3462	0.5940
102.0691	16.7692	0.5679
102.1539	17.5769	0.5814
102.2387	18.1154	0.5902
102.3234	17.7115	0.5836
102.4082	16.3654	0.5610
102.4930	18.0769	0.5896
102.5778	17.3462	0.5776
102.6626	17.4615	0.5795
102.7474	17.8462	0.5858
102.8322	18.5192	0.5968
102.9170	18.1731	0.5912
103.0018	17.8654	0.5861
103.0866	17.1923	0.5750
103.1714	17.7885	0.5849
103.2562	15.8667	0.5497
103.3410	17.1321	0.5685
103.4258	17.1698	0.5692
103.5106	17.1887	0.5695
103.5954	18.7358	0.5946
103.6802	18.8302	0.5961
103.7650	17.6792	0.5776
103.8498	17.0943	0.5679
103.9346	17.1698	0.5692
104.0194	16.8868	0.5645
104.1042	17.4151	0.5732
104.1890	17.6038	0.5763
104.2738	17.5660	0.5757
104.3586	18.2453	0.5867
104.4434	17.3962	0.5729
104.5282	17.6792	0.5776
104.6130	16.8491	0.5638
104.6978	18.5607	0.5890
104.7826	16.0374	0.5475
104.8674	16.8519	0.5586
104.9521	17.9815	0.5771
105.0369	17.1667	0.5638
105.1217	17.5741	0.5705
105.2065	17.3889	0.5675
105.2913	17.1111	0.5629
105.3761	17.0926	0.5626
105.4609	18.0741	0.5785
105.5457	18.2037	0.5806
105.6305	17.1481	0.5635
105.7153	18.0000	0.5774
105.8001	17.1852	0.5641
105.8849	16.1667	0.5472
105.9697	17.9259	0.5762
106.0545	17.6111	0.5711
106.1393	16.9908	0.5584
106.2241	18.5138	0.5828
106.3089	17.5273	0.5645
106.3937	16.7636	0.5521
106.4785	16.6909	0.5509
106.5633	18.9091	0.5863
106.6481	17.1818	0.5589
106.7329	18.8182	0.5849
106.8177	16.8545	0.5536
106.9025	16.7273	0.5515
106.9873	17.3818	0.5622
107.0721	17.4000	0.5625
107.1569	17.9636	0.5715
107.2417	17.7273	0.5677
107.3265	17.6182	0.5660
107.4113	17.5273	0.5645
107.4960	17.1892	0.5565
107.5808	16.1081	0.5387
107.6656	17.3694	0.5594
107.7504	17.0714	0.5521
107.8352	16.3929	0.5410
107.9200	17.1964	0.5541
108.0048	17.8571	0.5647
108.0896	17.5893	0.5604
108.1744	16.7679	0.5472
108.2592	17.5000	0.5590
108.3440	17.9821	0.5667
108.4288	17.3750	0.5570
108.5136	18.3036	0.5717
108.5984	16.7321	0.5466
108.6832	17.8214	0.5641
108.7680	16.6055	0.5520
108.8528	16.9245	0.5651
108.9376	17.2621	0.5790
109.0224	16.4200	0.5731
109.1072	16.8247	0.5890
109.1920	16.9149	0.5999
109.2768	16.8478	0.6052
109.3616	17.6404	0.6296
109.4464	17.1163	0.6309
109.5312	18.4578	0.6669
109.6160	19.2750	0.6942
109.7008	17.3766	0.6718
109.7856	17.6216	0.6901
109.8704	17.3239	0.6986
109.9552	17.3235	0.7138
109.9834	17.4627	0.7220