File: XRD/1100C_6w/10_W0.40Ta0.40Cr0.10Ti0.10_HIP1800C_8h_fast cooling_1100C_6w.txt
1.544427
20.0636	17.5467	0.3420
20.1343	17.7733	0.3442
20.2049	17.9733	0.3462
20.2756	17.2067	0.3387
20.3463	17.5600	0.3422
20.4169	17.5000	0.3416
20.4876	16.9600	0.3363
20.5582	16.8400	0.3351
20.6289	17.5533	0.3421
20.6996	17.1800	0.3384
20.7702	17.1267	0.3379
20.8409	16.6800	0.3335
20.9116	17.0400	0.3370
20.9822	16.6067	0.3327
21.0529	17.6333	0.3429
21.1236	16.5733	0.3324
21.1942	16.3333	0.3300
21.2649	16.3533	0.3302
21.3355	16.9733	0.3364
21.4062	16.2800	0.3294
21.4769	16.0533	0.3271
21.5475	15.6800	0.3233
21.6182	16.1400	0.3280
21.6889	16.1000	0.3276
21.7595	16.0867	0.3275
21.8302	16.0733	0.3273
21.9009	16.4400	0.3311
21.9715	15.8600	0.3252
22.0422	15.5867	0.3224
22.1129	16.0133	0.3267
22.1835	15.6733	0.3232
22.2542	15.4067	0.3205
22.3248	15.4600	0.3210
22.3955	15.8933	0.3255
22.4662	15.1467	0.3178
22.5368	15.6667	0.3232
22.6075	15.3333	0.3197
22.6782	14.9400	0.3156
22.7488	15.2867	0.3192
22.8195	14.8200	0.3143
22.8902	15.2133	0.3185
22.9608	14.7267	0.3133
23.0315	15.2733	0.3191
23.1021	15.1200	0.3175
23.1728	15.3867	0.3203
23.2435	14.6600	0.3126
23.3141	15.0867	0.3171
23.3848	14.9133	0.3153
23.4555	15.1600	0.3179
23.5261	14.6333	0.3123
23.5968	14.2133	0.3078
23.6675	14.4867	0.3108
23.7381	14.7600	0.3137
23.8088	14.8867	0.3150
23.8794	14.0467	0.3060
23.9501	14.2800	0.3085
24.0208	14.0400	0.3059
24.0914	14.2667	0.3084
24.1621	14.4867	0.3108
24.2328	13.6533	0.3017
24.3034	13.6733	0.3019
24.3741	13.9000	0.3044
24.4448	14.0400	0.3059
24.5154	14.3467	0.3093
24.5861	13.3733	0.2986
24.6568	14.0800	0.3064
24.7274	13.9000	0.3044
24.7981	13.4067	0.2990
24.8687	14.1333	0.3070
24.9394	13.0800	0.2953
25.0101	13.5267	0.3003
25.0807	13.5533	0.3006
25.1514	13.4733	0.2997
25.2221	13.3467	0.2983
25.2927	13.3133	0.2979
25.3634	13.0067	0.2945
25.4341	13.0867	0.2954
25.5047	13.1733	0.2963
25.5754	12.9000	0.2933
25.6460	12.8333	0.2925
25.7167	12.9600	0.2939
25.7874	13.2067	0.2967
25.8580	12.9200	0.2935
25.9287	12.4000	0.2875
25.9994	13.2133	0.2968
26.0700	12.5067	0.2888
26.1407	12.7333	0.2914
26.2114	13.1067	0.2956
26.2820	12.4733	0.2884
26.3527	12.6333	0.2902
26.4233	12.9133	0.2934
26.4940	12.6067	0.2899
26.5647	12.4333	0.2879
26.6353	12.5667	0.2894
26.7060	12.8133	0.2923
26.7767	12.2667	0.2860
26.8473	12.4333	0.2879
26.9180	12.3200	0.2866
26.9887	12.3400	0.2868
27.0593	12.6600	0.2905
27.1300	11.7333	0.2797
27.2007	11.5200	0.2771
27.2713	12.3400	0.2868
27.3420	11.3733	0.2754
27.4126	12.0733	0.2837
27.4833	11.9400	0.2821
27.5540	11.8467	0.2810
27.6246	12.0867	0.2839
27.6953	11.7667	0.2801
27.7660	11.6400	0.2786
27.8366	11.5733	0.2778
27.9073	11.7333	0.2797
27.9780	11.9200	0.2819
28.0486	11.5000	0.2769
28.1193	11.3400	0.2750
28.1899	11.2267	0.2736
28.2606	12.1133	0.2842
28.3313	11.2667	0.2741
28.4019	10.8400	0.2688
28.4726	11.5667	0.2777
28.5433	12.2467	0.2857
28.6139	11.3400	0.2750
28.6846	11.2533	0.2739
28.7553	11.3200	0.2747
28.8259	11.6867	0.2791
28.8966	11.3333	0.2749
28.9672	11.1333	0.2724
29.0379	11.0867	0.2719
29.1086	11.3267	0.2748
29.1792	11.0133	0.2710
29.2499	10.9133	0.2697
29.3206	10.3133	0.2622
29.3912	10.9667	0.2704
29.4619	10.4200	0.2636
29.5326	11.2600	0.2740
29.6032	10.7133	0.2672
29.6739	10.8133	0.2685
29.7446	10.3800	0.2631
29.8152	10.9200	0.2698
29.8859	10.8800	0.2693
29.9565	10.7067	0.2672
30.0272	10.8933	0.2695
30.0979	10.5067	0.2647
30.1685	10.4600	0.2641
30.2392	10.2933	0.2620
30.3099	10.2267	0.2611
30.3805	10.7200	0.2673
30.4512	10.9533	0.2702
30.5219	10.9333	0.2700
30.5925	10.9267	0.2699
30.6632	10.4867	0.2644
30.7338	10.3533	0.2627
30.8045	10.5200	0.2648
30.8752	9.7267	0.2546
30.9458	10.0533	0.2589
31.0165	10.1667	0.2603
31.0872	9.9800	0.2579
31.1578	9.7867	0.2554
31.2285	10.0200	0.2585
31.2992	10.2400	0.2613
31.3698	9.8333	0.2560
31.4405	9.6067	0.2531
31.5112	9.4467	0.2510
31.5818	9.7467	0.2549
31.6525	9.8733	0.2566
31.7231	9.6067	0.2531
31.7938	9.5600	0.2525
31.8645	10.0067	0.2583
31.9351	10.1133	0.2597
32.0058	9.7933	0.2555
32.0765	9.5333	0.2521
32.1471	9.7533	0.2550
32.2178	9.7133	0.2545
32.2885	10.0200	0.2585
32.3591	9.7733	0.2553
32.4298	9.7000	0.2543
32.5004	9.7467	0.2549
32.5711	9.5067	0.2517
32.6418	9.6333	0.2534
32.7124	9.7800	0.2553
32.7831	10.1133	0.2597
32.8538	9.4467	0.2510
32.9244	10.1000	0.2595
32.9951	10.0067	0.2583
33.0658	10.3400	0.2626
33.1364	11.0333	0.2712
33.2071	11.3800	0.2754
33.2777	12.4000	0.2875
33.3484	13.7333	0.3026
33.4191	14.7933	0.3140
33.4897	14.6933	0.3130
33.5604	13.5933	0.3010
33.6311	11.5867	0.2779
33.7017	10.8467	0.2689
33.7724	10.2733	0.2617
33.8431	10.0467	0.2588
33.9137	9.9267	0.2573
33.9844	9.3533	0.2497
34.0551	8.9667	0.2445
34.1257	8.8000	0.2422
34.1964	9.0600	0.2458
34.2670	8.5733	0.2391
34.3377	8.8400	0.2428
34.4084	8.7733	0.2418
34.4790	9.2533	0.2484
34.5497	9.2467	0.2483
34.6204	8.4200	0.2369
34.6910	9.0067	0.2450
34.7617	9.1333	0.2468
34.8324	8.1533	0.2331
34.9030	9.1533	0.2470
34.9737	9.0133	0.2451
35.0443	9.1333	0.2468
35.1150	8.9400	0.2441
35.1857	9.2800	0.2487
35.2563	9.4200	0.2506
35.3270	9.3000	0.2490
35.3977	8.9067	0.2437
35.4683	9.9600	0.2577
35.5390	9.3467	0.2496
35.6097	9.2267	0.2480
35.6803	9.7000	0.2543
35.7510	9.5200	0.2519
35.8216	9.8067	0.2557
35.8923	10.4933	0.2645
35.9630	10.9000	0.2696
36.0336	11.2333	0.2737
36.1043	11.3467	0.2750
36.1750	12.9733	0.2941
36.2456	13.7733	0.3030
36.3163	16.0000	0.3266
36.3870	18.1333	0.3477
36.4576	20.4067	0.3688
36.5283	19.6467	0.3619
36.5990	17.6533	0.3431
36.6696	16.0600	0.3272
36.7403	14.4733	0.3106
36.8109	12.0933	0.2839
36.8816	11.4733	0.2766
36.9523	10.3667	0.2629
37.0229	10.4667	0.2642
37.0936	10.3533	0.2627
37.1643	10.1867	0.2606
37.2349	9.9000	0.2569
37.3056	10.3333	0.2625
37.3763	10.6600	0.2666
37.4469	10.6933	0.2670
37.5176	10.6400	0.2663
37.5882	11.6067	0.2782
37.6589	12.3733	0.2872
37.7296	13.9800	0.3053
37.8002	14.6600	0.3126
37.8709	17.0000	0.3367
37.9416	20.5600	0.3702
38.0122	24.6600	0.4055
38.0829	29.6533	0.4446
38.1536	35.9467	0.4895
38.2242	39.9133	0.5158
38.2949	36.7333	0.4949
38.3655	31.2067	0.4561
38.4362	23.4533	0.3954
38.5069	17.9533	0.3460
38.5775	15.5800	0.3223
38.6482	13.6667	0.3018
38.7189	13.0867	0.2954
38.7895	12.2333	0.2856
38.8602	12.2800	0.2861
38.9309	11.9533	0.2823
39.0015	12.1133	0.2842
39.0722	12.2067	0.2853
39.1429	12.8533	0.2927
39.2135	13.2533	0.2972
39.2842	14.5400	0.3113
39.3548	15.8467	0.3250
39.4255	18.4200	0.3504
39.4962	21.3200	0.3770
39.5668	26.3533	0.4192
39.6375	34.2000	0.4775
39.7082	44.3533	0.5438
39.7788	58.3267	0.6236
39.8495	76.6800	0.7150
39.9202	94.2333	0.7926
39.9908	108.5067	0.8505
40.0615	114.1067	0.8722
40.1321	107.7933	0.8477
40.2028	91.8333	0.7824
40.2735	70.2800	0.6845
40.3441	49.9867	0.5773
40.4148	36.7400	0.4949
40.4855	27.2267	0.4260
40.5561	21.6133	0.3796
40.6268	16.8333	0.3350
40.6975	14.0533	0.3061
40.7681	12.1467	0.2846
40.8388	11.3667	0.2753
40.9094	10.8200	0.2686
40.9801	10.1400	0.2600
41.0508	9.8667	0.2565
41.1214	9.1000	0.2463
41.1921	8.2400	0.2344
41.2628	8.3600	0.2361
41.3334	8.3533	0.2360
41.4041	8.7000	0.2408
41.4748	8.0267	0.2313
41.5454	7.4467	0.2228
41.6161	7.7733	0.2276
41.6868	7.6067	0.2252
41.7574	7.2667	0.2201
41.8281	7.4400	0.2227
41.8987	7.5333	0.2241
41.9694	6.9400	0.2151
42.0401	7.4267	0.2225
42.1107	7.2800	0.2203
42.1814	7.3000	0.2206
42.2521	7.1067	0.2177
42.3227	7.5333	0.2241
42.3934	7.1533	0.2184
42.4641	6.7867	0.2127
42.5347	6.7667	0.2124
42.6054	7.0800	0.2173
42.6760	7.1133	0.2178
42.7467	7.0800	0.2173
42.8174	7.1733	0.2187
42.8880	7.2933	0.2205
42.9587	7.2667	0.2201
43.0294	7.1667	0.2186
43.1000	7.1667	0.2186
43.1707	7.7467	0.2273
43.2414	7.1867	0.2189
43.3120	7.0600	0.2169
43.3827	7.0133	0.2162
43.4534	6.8867	0.2143
43.5240	6.9267	0.2149
43.5947	6.7333	0.2119
43.6653	6.6933	0.2112
43.7360	6.3800	0.2062
43.8067	6.4200	0.2069
43.8773	6.4533	0.2074
43.9480	6.5733	0.2093
44.0187	6.4333	0.2071
44.0893	6.2600	0.2043
44.1600	6.3733	0.2061
44.2307	6.1933	0.2032
44.3013	6.2867	0.2047
44.3720	6.2733	0.2045
44.4426	6.0200	0.2003
44.5133	6.3067	0.2050
44.5840	5.9467	0.1991
44.6546	5.9133	0.1986
44.7253	6.1400	0.2023
44.7960	5.7467	0.1957
44.8666	5.8800	0.1980
44.9373	5.8000	0.1966
45.0080	6.0867	0.2014
45.0786	6.2000	0.2033
45.1493	5.8267	0.1971
45.2199	5.7667	0.1961
45.2906	5.6000	0.1932
45.3613	6.0067	0.2001
45.4319	5.5200	0.1918
45.5026	5.7667	0.1961
45.5733	5.6800	0.1946
45.6439	5.7000	0.1949
45.7146	5.7333	0.1955
45.7853	5.7867	0.1964
45.8559	5.6400	0.1939
45.9266	5.6533	0.1941
45.9973	5.7867	0.1964
46.0679	5.8800	0.1980
46.1386	5.5067	0.1916
46.2092	5.5133	0.1917
46.2799	5.4933	0.1914
46.3506	5.8733	0.1979
46.4212	5.5800	0.1929
46.4919	5.4600	0.1908
46.5626	5.3067	0.1881
46.6332	5.4733	0.1910
46.7039	5.6333	0.1938
46.7746	5.5133	0.1917
46.8452	5.5533	0.1924
46.9159	5.5667	0.1926
46.9865	5.5733	0.1928
47.0572	5.3800	0.1894
47.1279	5.4600	0.1908
47.1985	5.4400	0.1904
47.2692	5.4467	0.1906
47.3399	5.4867	0.1913
47.4105	5.1867	0.1860
47.4812	5.9133	0.1986
47.5519	5.2867	0.1877
47.6225	5.0667	0.1838
47.6932	5.6600	0.1943
47.7638	5.5733	0.1928
47.8345	5.0733	0.1839
47.9052	5.3533	0.1889
47.9758	5.3400	0.1887
48.0465	5.2733	0.1875
48.1172	5.2533	0.1871
48.1878	5.2133	0.1864
48.2585	5.3800	0.1894
48.3292	5.4000	0.1897
48.3998	5.1800	0.1858
48.4705	4.9333	0.1814
48.5412	4.7733	0.1784
48.6118	5.5867	0.1930
48.6825	5.1800	0.1858
48.7531	5.3267	0.1884
48.8238	5.2600	0.1873
48.8945	5.2000	0.1862
48.9651	5.2200	0.1865
49.0358	5.1933	0.1861
49.1065	5.2533	0.1871
49.1771	5.3733	0.1893
49.2478	5.1733	0.1857
49.3185	5.4933	0.1914
49.3891	5.6200	0.1936
49.4598	5.8067	0.1968
49.5304	6.0733	0.2012
49.6011	5.8600	0.1977
49.6718	5.8667	0.1978
49.7424	6.1867	0.2031
49.8131	6.5867	0.2095
49.8838	7.1467	0.2183
49.9544	7.4400	0.2227
50.0251	7.7667	0.2275
50.0958	8.6933	0.2407
50.1664	9.4200	0.2506
50.2371	10.0267	0.2585
50.3077	10.9600	0.2703
50.3784	10.2333	0.2612
50.4491	9.2400	0.2482
50.5197	8.2933	0.2351
50.5904	7.2600	0.2200
50.6611	6.9333	0.2150
50.7317	6.4133	0.2068
50.8024	5.9067	0.1984
50.8731	5.7133	0.1952
50.9437	5.9867	0.1998
51.0144	5.6067	0.1933
51.0851	5.1400	0.1851
51.1557	5.4200	0.1901
51.2264	5.5267	0.1919
51.2970	4.8533	0.1799
51.3677	5.1200	0.1848
51.4384	5.0667	0.1838
51.5090	4.9267	0.1812
51.5797	5.0667	0.1838
51.6504	5.1467	0.1852
51.7210	4.9733	0.1821
51.7917	4.7467	0.1779
51.8624	4.7867	0.1786
51.9330	4.9867	0.1823
52.0037	4.6000	0.1751
52.0743	4.9000	0.1807
52.1450	4.8867	0.1805
52.2157	4.9733	0.1821
52.2863	4.7933	0.1788
52.3570	5.0333	0.1832
52.4277	5.0200	0.1829
52.4983	4.5200	0.1736
52.5690	4.9533	0.1817
52.6397	4.6933	0.1769
52.7103	5.0133	0.1828
52.7810	4.6800	0.1766
52.8516	4.8000	0.1789
52.9223	4.2200	0.1677
52.9930	4.5133	0.1735
53.0636	4.6600	0.1763
53.1343	4.7067	0.1771
53.2050	4.7467	0.1779
53.2756	4.6133	0.1754
53.3463	4.5533	0.1742
53.4170	4.8933	0.1806
53.4876	4.8333	0.1795
53.5583	4.7400	0.1778
53.6290	4.8400	0.1796
53.6996	5.0933	0.1843
53.7703	4.9133	0.1810
53.8409	4.7667	0.1783
53.9116	4.7667	0.1783
53.9823	5.0467	0.1834
54.0529	4.7400	0.1778
54.1236	4.4800	0.1728
54.1943	4.9333	0.1814
54.2649	4.8067	0.1790
54.3356	4.6000	0.1751
54.4063	4.6533	0.1761
54.4769	4.5400	0.1740
54.5476	4.8000	0.1789
54.6182	4.8467	0.1798
54.6889	4.9267	0.1812
54.7596	4.5867	0.1749
54.8302	4.4133	0.1715
54.9009	4.6267	0.1756
54.9716	4.5533	0.1742
55.0422	4.9533	0.1817
55.1129	4.5533	0.1742
55.1836	4.5600	0.1744
55.2542	4.6667	0.1764
55.3249	4.5067	0.1733
55.3956	4.7067	0.1771
55.4662	4.6267	0.1756
55.5369	4.7933	0.1788
55.6075	4.5200	0.1736
55.6782	4.5867	0.1749
55.7489	4.6400	0.1759
55.8195	4.8533	0.1799
55.8902	4.8400	0.1796
55.9609	4.8067	0.1790
56.0315	4.6733	0.1765
56.1022	5.2133	0.1864
56.1729	4.7333	0.1776
56.2435	5.2333	0.1868
56.3142	4.9133	0.1810
56.3848	4.7667	0.1783
56.4555	4.7267	0.1775
56.5262	5.0333	0.1832
56.5968	5.0267	0.1831
56.6675	5.0933	0.1843
56.7382	5.1400	0.1851
56.8088	5.4333	0.1903
56.8795	5.6933	0.1948
56.9502	6.1067	0.2018
57.0208	5.8667	0.1978
57.0915	6.5400	0.2088
57.1621	7.0933	0.2175
57.2328	7.5800	0.2248
57.3035	8.2467	0.2345
57.3741	10.0200	0.2585
57.4448	11.4933	0.2768
57.5155	12.6400	0.2903
57.5861	15.0200	0.3164
57.6568	16.8800	0.3355
57.7275	19.7400	0.3628
57.7981	21.9867	0.3829
57.8688	23.5933	0.3966
57.9395	22.8333	0.3902
58.0101	22.5067	0.3874
58.0808	21.0333	0.3745
58.1514	17.9600	0.3460
58.2221	15.2533	0.3189
58.2928	12.3800	0.2873
58.3634	10.3400	0.2626
58.4341	8.5000	0.2380
58.5048	7.6867	0.2264
58.5754	7.2067	0.2192
58.6461	6.3267	0.2054
58.7168	6.0533	0.2009
58.7874	5.6733	0.1945
58.8581	5.8467	0.1974
58.9287	5.4867	0.1913
58.9994	5.6733	0.1945
59.0701	5.9333	0.1989
59.1407	5.8600	0.1977
59.2114	6.2667	0.2044
59.2821	6.4800	0.2078
59.3527	6.5067	0.2083
59.4234	7.0133	0.2162
59.4941	7.6000	0.2251
59.5647	7.9800	0.2307
59.6354	9.0267	0.2453
59.7060	9.6933	0.2542
59.7767	9.2733	0.2486
59.8474	8.9867	0.2448
59.9180	8.0133	0.2311
59.9887	6.9933	0.2159
60.0594	6.3067	0.2050
60.1300	6.0200	0.2003
60.2007	5.7067	0.1950
60.2714	4.9800	0.1822
60.3420	5.1067	0.1845
60.4127	5.0267	0.1831
60.4834	5.1867	0.1860
60.5540	5.3800	0.1894
60.6247	4.7467	0.1779
60.6953	4.8267	0.1794
60.7660	4.5067	0.1733
60.8367	4.7067	0.1771
60.9073	4.4133	0.1715
60.9780	4.5000	0.1732
61.0487	4.3200	0.1697
61.1193	4.5667	0.1745
61.1900	4.3933	0.1711
61.2607	4.6133	0.1754
61.3313	4.2733	0.1688
61.4020	4.6400	0.1759
61.4726	4.3867	0.1710
61.5433	4.4667	0.1726
61.6140	4.3333	0.1700
61.6846	4.2067	0.1675
61.7553	4.3200	0.1697
61.8260	4.5600	0.1744
61.8966	4.1867	0.1671
61.9673	4.0933	0.1652
62.0380	4.1200	0.1657
62.1086	4.2000	0.1673
62.1793	4.3600	0.1705
62.2499	4.1067	0.1655
62.3206	4.2933	0.1692
62.3913	4.2000	0.1673
62.4619	4.5400	0.1740
62.5326	4.1133	0.1656
62.6033	4.3667	0.1706
62.6739	3.9800	0.1629
62.7446	4.2867	0.1690
62.8153	4.2867	0.1690
62.8859	4.2933	0.1692
62.9566	4.0800	0.1649
63.0273	4.1000	0.1653
63.0979	3.8267	0.1597
63.1686	4.2000	0.1673
63.2392	4.1667	0.1667
63.3099	4.3933	0.1711
63.3806	3.9800	0.1629
63.4512	4.0333	0.1640
63.5219	4.1600	0.1665
63.5926	4.3200	0.1697
63.6632	4.5133	0.1735
63.7339	4.2533	0.1684
63.8046	4.2733	0.1688
63.8752	4.2267	0.1679
63.9459	4.1867	0.1671
64.0165	4.3133	0.1696
64.0872	4.4267	0.1718
64.1579	4.4067	0.1714
64.2285	4.2933	0.1692
64.2992	4.2267	0.1679
64.3699	4.1467	0.1663
64.4405	4.2267	0.1679
64.5112	3.9067	0.1614
64.5819	4.1467	0.1663
64.6525	4.3667	0.1706
64.7232	4.1133	0.1656
64.7938	4.2267	0.1679
64.8645	4.4467	0.1722
64.9352	3.8200	0.1596
65.0058	4.4000	0.1713
65.0765	4.3800	0.1709
65.1472	4.2400	0.1681
65.2178	4.3600	0.1705
65.2885	4.5467	0.1741
65.3592	4.3800	0.1709
65.4298	4.7267	0.1775
65.5005	4.7000	0.1770
65.5712	4.6533	0.1761
65.6418	4.5133	0.1735
65.7125	4.7533	0.1780
65.7831	4.8067	0.1790
65.8538	4.8133	0.1791
65.9245	5.1200	0.1848
65.9951	5.3867	0.1895
66.0658	5.3600	0.1890
66.1365	5.4867	0.1913
66.2071	5.8400	0.1973
66.2778	5.8867	0.1981
66.3485	6.5333	0.2087
66.4191	7.1200	0.2179
66.4898	7.4867	0.2234
66.5604	8.5133	0.2382
66.6311	8.6200	0.2397
66.7018	9.4600	0.2511
66.7724	10.0533	0.2589
66.8431	9.7933	0.2555
66.9138	9.1600	0.2471
66.9844	8.4467	0.2373
67.0551	7.3733	0.2217
67.1258	7.1000	0.2176
67.1964	6.0533	0.2009
67.2671	5.5733	0.1928
67.3378	5.4133	0.1900
67.4084	5.1733	0.1857
67.4791	4.8667	0.1801
67.5497	4.6333	0.1758
67.6204	4.7467	0.1779
67.6911	4.5600	0.1744
67.7617	4.4800	0.1728
67.8324	4.3600	0.1705
67.9031	4.4267	0.1718
67.9737	4.4533	0.1723
68.0444	4.5400	0.1740
68.1151	4.3733	0.1707
68.1857	4.3867	0.1710
68.2564	4.1933	0.1672
68.3270	3.9667	0.1626
68.3977	4.1333	0.1660
68.4684	3.9867	0.1630
68.5390	4.0400	0.1641
68.6097	4.2533	0.1684
68.6804	4.2600	0.1685
68.7510	4.2200	0.1677
68.8217	4.2400	0.1681
68.8924	4.0933	0.1652
68.9630	4.3067	0.1694
69.0337	3.9600	0.1625
69.1043	4.1733	0.1668
69.1750	4.3467	0.1702
69.2457	4.0400	0.1641
69.3163	4.3400	0.1701
69.3870	4.4133	0.1715
69.4577	4.3200	0.1697
69.5283	4.4600	0.1724
69.5990	4.5133	0.1735
69.6697	4.4867	0.1729
69.7403	4.9133	0.1810
69.8110	4.6800	0.1766
69.8817	4.7267	0.1775
69.9523	5.0533	0.1835
70.0230	4.9133	0.1810
70.0936	5.3133	0.1882
70.1643	5.1333	0.1850
70.2350	5.4400	0.1904
70.3056	5.4467	0.1906
70.3763	5.0000	0.1826
70.4470	5.3933	0.1896
70.5176	5.1733	0.1857
70.5883	5.3800	0.1894
70.6590	5.5267	0.1919
70.7296	5.0867	0.1841
70.8003	5.5267	0.1919
70.8709	5.7000	0.1949
70.9416	5.8867	0.1981
71.0123	5.3667	0.1892
71.0829	6.0000	0.2000
71.1536	6.4600	0.2075
71.2243	7.0067	0.2161
71.2949	7.0933	0.2175
71.3656	7.4933	0.2235
71.4363	7.7733	0.2276
71.5069	8.3733	0.2363
71.5776	8.9533	0.2443
71.6482	9.8600	0.2564
71.7189	11.9133	0.2818
71.7896	13.1933	0.2966
71.8602	14.5000	0.3109
71.9309	16.7533	0.3342
72.0016	17.9467	0.3459
72.0722	18.9533	0.3555
72.1429	21.5267	0.3788
72.2136	22.5333	0.3876
72.2842	24.0133	0.4001
72.3549	26.6133	0.4212
72.4256	28.3200	0.4345
72.4962	30.9600	0.4543
72.5669	32.5533	0.4659
72.6375	35.1000	0.4837
72.7082	36.7333	0.4949
72.7789	35.8267	0.4887
72.8495	36.3333	0.4922
72.9202	33.2467	0.4708
72.9909	31.2600	0.4565
73.0615	28.0733	0.4326
73.1322	24.5667	0.4047
73.2029	20.6267	0.3708
73.2735	17.5533	0.3421
73.3442	15.0400	0.3166
73.4148	12.6333	0.2902
73.4855	10.5733	0.2655
73.5562	8.9600	0.2444
73.6268	8.5067	0.2381
73.6975	7.5200	0.2239
73.7682	6.8467	0.2136
73.8388	6.5933	0.2097
73.9095	5.9933	0.1999
73.9802	5.5400	0.1922
74.0508	5.3267	0.1884
74.1215	5.2800	0.1876
74.1921	5.1867	0.1860
74.2628	5.2733	0.1875
74.3335	4.7200	0.1774
74.4041	4.7333	0.1776
74.4748	4.6867	0.1768
74.5455	4.5333	0.1738
74.6161	4.5200	0.1736
74.6868	4.4400	0.1720
74.7575	4.5467	0.1741
74.8281	4.6133	0.1754
74.8988	4.0933	0.1652
74.9695	3.9733	0.1628
75.0401	4.1667	0.1667
75.1108	4.3333	0.1700
75.1814	4.3800	0.1709
75.2521	4.3267	0.1698
75.3228	4.3467	0.1702
75.3934	4.2267	0.1679
75.4641	4.3400	0.1701
75.5348	4.0000	0.1633
75.6054	3.9133	0.1615
75.6761	4.2267	0.1679
75.7468	4.2267	0.1679
75.8174	3.9533	0.1623
75.8881	4.0667	0.1647
75.9587	4.0333	0.1640
76.0294	4.0467	0.1642
76.1001	3.9467	0.1622
76.1707	4.0200	0.1637
76.2414	3.9400	0.1621
76.3121	4.1667	0.1667
76.3827	4.0133	0.1636
76.4534	4.0867	0.1651
76.5241	3.8600	0.1604
76.5947	3.9800	0.1629
76.6654	4.2600	0.1685
76.7360	4.0800	0.1649
76.8067	4.2133	0.1676
76.8774	4.1800	0.1669
76.9480	4.2933	0.1692
77.0187	4.1533	0.1664
77.0894	4.5000	0.1732
77.1600	4.3067	0.1694
77.2307	4.3067	0.1694
77.3014	4.4333	0.1719
77.3720	4.7200	0.1774
77.4427	4.8533	0.1799
77.5134	4.6400	0.1759
77.5840	4.7667	0.1783
77.6547	4.9267	0.1812
77.7253	4.7333	0.1776
77.7960	4.3400	0.1701
77.8667	4.5800	0.1747
77.9373	4.1533	0.1664
78.0080	4.3267	0.1698
78.0787	4.0000	0.1633
78.1493	4.0067	0.1634
78.2200	3.9733	0.1628
78.2907	3.6867	0.1568
78.3613	4.0267	0.1638
78.4320	3.8533	0.1603
78.5026	3.5067	0.1529
78.5733	3.9267	0.1618
78.6440	4.0733	0.1648
78.7146	3.8133	0.1594
78.7853	3.9200	0.1617
78.8560	3.7533	0.1582
78.9266	3.8133	0.1594
78.9973	3.9267	0.1618
79.0680	4.0200	0.1637
79.1386	3.8800	0.1608
79.2093	3.5667	0.1542
79.2800	3.9867	0.1630
79.3506	3.6600	0.1562
79.4213	3.7933	0.1590
79.4919	3.5933	0.1548
79.5626	3.7867	0.1589
79.6333	4.0600	0.1645
79.7039	3.7000	0.1571
79.7746	3.8200	0.1596
79.8453	3.8333	0.1599
79.9159	3.7267	0.1576
79.9866	3.7533	0.1582
80.0573	3.5267	0.1533
80.1279	3.7067	0.1572
80.1986	4.0000	0.1633
80.2692	3.9600	0.1625
80.3399	3.5067	0.1529
80.4106	3.9333	0.1619
80.4812	3.6667	0.1563
80.5519	4.0600	0.1645
80.6226	3.8933	0.1611
80.6932	4.1400	0.1661
80.7639	4.0133	0.1636
80.8346	4.1067	0.1655
80.9052	3.5733	0.1543
80.9759	3.8000	0.1592
81.0465	3.7267	0.1576
81.1172	3.9533	0.1623
81.1879	3.9333	0.1619
81.2585	4.0933	0.1652
81.3292	3.9067	0.1614
81.3999	3.8267	0.1597
81.4705	4.1267	0.1659
81.5412	4.5933	0.1750
81.6119	4.4267	0.1718
81.6825	4.5400	0.1740
81.7532	4.6800	0.1766
81.8239	4.5667	0.1745
81.8945	4.7533	0.1780
81.9652	4.1267	0.1659
82.0358	4.3600	0.1705
82.1065	4.2533	0.1684
82.1772	4.0533	0.1644
82.2478	3.8733	0.1607
82.3185	3.8867	0.1610
82.3892	4.0067	0.1634
82.4598	3.8000	0.1592
82.5305	3.9600	0.1625
82.6012	3.9200	0.1617
82.6718	3.5533	0.1539
82.7425	3.8200	0.1596
82.8131	3.9200	0.1617
82.8838	3.7733	0.1586
82.9545	4.0933	0.1652
83.0251	3.6400	0.1558
83.0958	3.9667	0.1626
83.1665	3.9733	0.1628
83.2371	3.6333	0.1556
83.3078	3.8000	0.1592
83.3785	3.8667	0.1606
83.4491	3.6200	0.1553
83.5198	3.6800	0.1566
83.5904	3.8467	0.1601
83.6611	3.9933	0.1632
83.7318	4.3800	0.1709
83.8024	4.2667	0.1687
83.8731	3.7667	0.1585
83.9438	3.7733	0.1586
84.0144	3.9400	0.1621
84.0851	3.7800	0.1587
84.1558	4.0800	0.1649
84.2264	3.8867	0.1610
84.2971	3.9133	0.1615
84.3678	4.0600	0.1645
84.4384	3.7467	0.1580
84.5091	3.8867	0.1610
84.5797	4.1400	0.1661
84.6504	4.1467	0.1663
84.7211	4.1133	0.1656
84.7917	4.4000	0.1713
84.8624	4.1867	0.1671
84.9331	4.0933	0.1652
85.0037	4.6267	0.1756
85.0744	4.4467	0.1722
85.1451	4.7867	0.1786
85.2157	4.7467	0.1779
85.2864	5.0933	0.1843
85.3570	5.1133	0.1846
85.4277	5.2133	0.1864
85.4984	5.4667	0.1909
85.5690	5.8267	0.1971
85.6397	6.1867	0.2031
85.7104	6.6400	0.2104
85.7810	6.7733	0.2125
85.8517	7.3400	0.2212
85.9224	8.1267	0.2328
85.9930	8.3333	0.2357
86.0637	9.3333	0.2494
86.1343	10.1667	0.2603
86.2050	10.6267	0.2662
86.2757	11.4533	0.2763
86.3463	11.4067	0.2758
86.4170	11.4733	0.2766
86.4877	11.8200	0.2807
86.5583	11.1733	0.2729
86.6290	10.7200	0.2673
86.6997	10.2867	0.2619
86.7703	9.4333	0.2508
86.8410	9.2467	0.2483
86.9117	8.5067	0.2381
86.9823	8.2467	0.2345
87.0530	7.3533	0.2214
87.1236	6.9533	0.2153
87.1943	6.4733	0.2077
87.2650	6.1267	0.2021
87.3356	5.6333	0.1938
87.4063	5.3333	0.1886
87.4770	5.4067	0.1899
87.5476	5.0800	0.1840
87.6183	4.7933	0.1788
87.6890	4.3467	0.1702
87.7596	4.4933	0.1731
87.8303	4.4800	0.1728
87.9009	4.0600	0.1645
87.9716	4.2200	0.1677
88.0423	4.1067	0.1655
88.1129	4.0733	0.1648
88.1836	4.1533	0.1664
88.2543	4.1067	0.1655
88.3249	4.2333	0.1680
88.3956	4.2333	0.1680
88.4663	4.2133	0.1676
88.5369	3.9467	0.1622
88.6076	4.1333	0.1660
88.6782	4.0467	0.1642
88.7489	4.0200	0.1637
88.8196	4.0000	0.1633
88.8902	4.0000	0.1633
88.9609	4.0133	0.1636
89.0316	4.1133	0.1656
89.1022	3.9733	0.1628
89.1729	4.1533	0.1664
89.2436	4.3267	0.1698
89.3142	3.9467	0.1622
89.3849	4.0000	0.1633
89.4556	4.0800	0.1649
89.5262	3.6600	0.1562
89.5969	4.1333	0.1660
89.6675	4.1667	0.1667
89.7382	4.1400	0.1661
89.8089	4.3133	0.1696
89.8795	3.6733	0.1565
89.9502	3.9600	0.1625
90.0209	4.0933	0.1652
90.0915	4.0400	0.1641
90.1622	4.1667	0.1667
90.2329	4.6133	0.1754
90.3035	4.1067	0.1655
90.3742	4.1200	0.1657
90.4448	4.0933	0.1652
90.5155	4.0867	0.1651
90.5862	4.2933	0.1692
90.6568	4.1333	0.1660
90.7275	4.1133	0.1656
90.7982	4.2200	0.1677
90.8688	4.2000	0.1673
90.9395	4.4200	0.1717
91.0102	4.2867	0.1690
91.0808	4.0400	0.1641
91.1515	4.1867	0.1671
91.2222	4.3200	0.1697
91.2928	4.3933	0.1711
91.3635	4.3800	0.1709
91.4341	4.3733	0.1707
91.5048	4.2133	0.1676
91.5755	4.4667	0.1726
91.6461	4.3867	0.1710
91.7168	4.5000	0.1732
91.7875	4.6667	0.1764
91.8581	4.4000	0.1713
91.9288	4.0667	0.1647
91.9995	4.2800	0.1689
92.0701	4.4067	0.1714
92.1408	4.4133	0.1715
92.2114	4.3067	0.1694
92.2821	4.3467	0.1702
92.3528	4.2933	0.1692
92.4234	4.2667	0.1687
92.4941	4.2533	0.1684
92.5648	4.3867	0.1710
92.6354	4.2800	0.1689
92.7061	4.2067	0.1675
92.7768	4.4067	0.1714
92.8474	4.6067	0.1752
92.9181	4.5333	0.1738
92.9887	4.3800	0.1709
93.0594	4.5467	0.1741
93.1301	4.5000	0.1732
93.2007	4.4467	0.1722
93.2714	4.3000	0.1693
93.3421	4.5067	0.1733
93.4127	4.5733	0.1746
93.4834	4.4400	0.1720
93.5541	4.4267	0.1718
93.6247	4.7733	0.1784
93.6954	4.6800	0.1766
93.7661	4.7067	0.1771
93.8367	4.7133	0.1773
93.9074	4.6267	0.1756
93.9780	4.8000	0.1789
94.0487	4.5933	0.1750
94.1194	4.9000	0.1807
94.1900	5.0267	0.1831
94.2607	5.1733	0.1857
94.3314	5.0400	0.1833
94.4020	4.6000	0.1751
94.4727	4.8533	0.1799
94.5434	5.0667	0.1838
94.6140	4.7333	0.1776
94.6847	4.9667	0.1820
94.7553	4.9467	0.1816
94.8260	5.1067	0.1845
94.8967	5.0800	0.1840
94.9673	5.4400	0.1904
95.0380	5.3933	0.1896
95.1087	5.5533	0.1924
95.1793	5.7267	0.1954
95.2500	5.5000	0.1915
95.3207	5.9600	0.1993
95.3913	6.2267	0.2037
95.4620	6.0400	0.2007
95.5326	6.1333	0.2022
95.6033	6.5667	0.2092
95.6740	6.8533	0.2137
95.7446	7.0867	0.2174
95.8153	6.6533	0.2106
95.8860	6.6733	0.2109
95.9566	6.3333	0.2055
96.0273	6.3667	0.2060
96.0980	6.3600	0.2059
96.1686	6.2733	0.2045
96.2393	6.1400	0.2023
96.3100	5.6667	0.1944
96.3806	5.6667	0.1944
96.4513	5.8200	0.1970
96.5219	5.5133	0.1917
96.5926	5.4200	0.1901
96.6633	5.8133	0.1969
96.7339	5.4133	0.1900
96.8046	5.6867	0.1947
96.8753	5.5067	0.1916
96.9459	5.7000	0.1949
97.0166	5.5267	0.1919
97.0873	5.5467	0.1923
97.1579	5.5733	0.1928
97.2286	5.6067	0.1933
97.2992	5.6000	0.1932
97.3699	5.7067	0.1950
97.4406	5.5867	0.1930
97.5112	5.4600	0.1908
97.5819	5.9467	0.1991
97.6526	5.9600	0.1993
97.7232	6.1733	0.2029
97.7939	5.6600	0.1943
97.8646	5.9867	0.1998
97.9352	6.4933	0.2081
98.0059	5.9800	0.1997
98.0765	6.2133	0.2035
98.1472	6.1467	0.2024
98.2179	6.3800	0.2062
98.2885	6.4933	0.2081
98.3592	7.0600	0.2169
98.4299	6.9867	0.2158
98.5005	7.0400	0.2166
98.5712	7.1200	0.2179
98.6419	7.8800	0.2292
98.7125	8.2667	0.2348
98.7832	8.4000	0.2366
98.8539	8.3267	0.2356
98.9245	9.1333	0.2468
98.9952	9.2733	0.2486
99.0658	10.1800	0.2605
99.1365	10.3867	0.2631
99.2072	11.1867	0.2731
99.2778	11.9133	0.2818
99.3485	12.6600	0.2905
99.4192	13.2800	0.2975
99.4898	13.3133	0.2979
99.5605	14.5733	0.3117
99.6312	14.6733	0.3128
99.7018	16.1267	0.3279
99.7725	16.3400	0.3301
99.8431	16.1400	0.3280
99.9138	16.7467	0.3341
99.9845	16.3933	0.3306
100.0551	16.1867	0.3285
100.1258	15.6400	0.3229
100.1965	15.4200	0.3206
100.2671	13.8000	0.3033
100.3378	13.6267	0.3014
100.4085	12.8067	0.2922
100.4791	11.9933	0.2828
100.5498	11.1467	0.2726
100.6204	10.6000	0.2658
100.6911	9.9267	0.2573
100.7618	9.9133	0.2571
100.8324	9.1400	0.2468
100.9031	8.8267	0.2426
100.9738	8.3733	0.2363
101.0444	8.3000	0.2352
101.1151	8.2733	0.2349
101.1858	7.9933	0.2308
101.2564	8.0600	0.2318
101.3271	8.1600	0.2332
101.3978	8.2600	0.2347
101.4684	8.4600	0.2375
101.5391	8.6133	0.2396
101.6097	8.9867	0.2448
101.6804	9.1267	0.2467
101.7511	9.0800	0.2460
101.8217	9.2667	0.2486
101.8924	8.6133	0.2396
101.9631	8.1733	0.2334
102.0337	8.1800	0.2335
102.1044	8.1267	0.2328
102.1751	7.3200	0.2209
102.2457	7.5600	0.2245
102.3164	7.4933	0.2235
102.3870	6.9667	0.2155
102.4577	7.1333	0.2181
102.5284	7.1067	0.2177
102.5990	6.8733	0.2141
102.6697	6.6267	0.2102
102.7404	6.3333	0.2055
102.8110	6.6333	0.2103
102.8817	6.3533	0.2058
102.9524	6.2467	0.2041
103.0230	6.6267	0.2102
103.0937	6.3200	0.2053
103.1644	6.2200	0.2036
103.2350	6.3733	0.2061
103.3057	6.3600	0.2059
103.3763	6.3733	0.2061
103.4470	6.4200	0.2069
103.5177	6.6000	0.2098
103.5883	6.4000	0.2066
103.6590	6.1133	0.2019
103.7297	6.4600	0.2075
103.8003	5.9600	0.1993
103.8710	6.4067	0.2067
103.9417	6.2267	0.2037
104.0123	6.3000	0.2049
104.0830	6.5800	0.2094
104.1536	5.9600	0.1993
104.2243	6.2800	0.2046
104.2950	6.1800	0.2030
104.3656	6.1667	0.2028
104.4363	6.8267	0.2133
104.5070	6.5933	0.2097
104.5776	6.3867	0.2063
104.6483	6.1933	0.2032
104.7190	6.4733	0.2077
104.7896	6.3800	0.2062
104.8603	6.1400	0.2023
104.9309	7.0467	0.2167
105.0016	6.6000	0.2098
105.0723	6.6533	0.2106
105.1429	6.5400	0.2088
105.2136	6.7133	0.2116
105.2843	6.6933	0.2112
105.3549	6.9267	0.2149
105.4256	6.8800	0.2142
105.4963	7.1667	0.2186
105.5669	7.3400	0.2212
105.6376	7.3000	0.2206
105.7083	7.5733	0.2247
105.7789	7.1533	0.2184
105.8496	7.5667	0.2246
105.9202	7.9867	0.2307
105.9909	8.0400	0.2315
106.0616	8.1000	0.2324
106.1322	7.7533	0.2274
106.2029	8.0133	0.2311
106.2736	7.7400	0.2272
106.3442	7.3600	0.2215
106.4149	8.0000	0.2309
106.4856	7.4733	0.2232
106.5562	7.5267	0.2240
106.6269	6.9933	0.2159
106.6975	7.2133	0.2193
106.7682	6.5533	0.2090
106.8389	6.6933	0.2112
106.9095	6.7267	0.2118
106.9802	6.8133	0.2131
107.0509	6.5267	0.2086
107.1215	6.4533	0.2074
107.1922	7.0333	0.2165
107.2629	6.4400	0.2072
107.3335	6.1533	0.2025
107.4042	6.3600	0.2059
107.4748	6.2000	0.2033
107.5455	6.4067	0.2067
107.6162	6.0467	0.2008
107.6868	6.3400	0.2056
107.7575	6.1000	0.2017
107.8282	6.0467	0.2008
107.8988	6.2467	0.2041
107.9695	6.1067	0.2018
108.0402	6.3333	0.2055
108.1108	6.3533	0.2058
108.1815	6.3733	0.2061
108.2522	6.5067	0.2083
108.3228	6.0200	0.2003
108.3935	6.1933	0.2032
108.4641	6.6867	0.2111
108.5348	6.2000	0.2033
108.6055	6.3733	0.2061
108.6761	6.4867	0.2080
108.7468	6.3267	0.2054
108.8175	6.3200	0.2053
108.8881	6.2000	0.2033
108.9588	5.8800	0.1980
109.0295	6.8667	0.2140
109.1001	6.5467	0.2089
109.1708	6.8867	0.2143
109.2414	6.5000	0.2082
109.3121	6.8533	0.2137
109.3828	6.4400	0.2072
109.4534	6.0000	0.2000
109.5241	6.8467	0.2136
109.5948	6.5133	0.2084
109.6654	6.4733	0.2077
109.7361	6.5267	0.2086
109.8068	6.8467	0.2136
109.8774	6.9133	0.2147
109.9481	6.6400	0.2104
109.9905	6.9333	0.2150