File: XRD/SPS/10_W0.40Ta0.40Cr0.10Ti0.10_SPS1400C_txt.txt
1.544427
20.0707	50.5556	2.3701
20.1555	45.0000	2.2361
20.2403	46.4444	2.2717
20.3251	48.6667	2.3254
20.4099	46.1111	2.2635
20.4946	44.2222	2.2167
20.5794	49.2222	2.3386
20.6642	45.8889	2.2580
20.7490	47.6842	2.2404
20.8338	46.0000	2.2005
20.9186	47.2632	2.2305
21.0034	40.5263	2.0654
21.0882	48.0000	2.2478
21.1730	44.5263	2.1649
21.2578	45.8947	2.1980
21.3426	44.8000	2.1166
21.4274	40.6000	2.0149
21.5122	44.7000	2.1142
21.5970	44.5000	2.1095
21.6818	44.3000	2.1048
21.7666	46.2000	2.1494
21.8514	39.8000	1.9950
21.9362	38.1000	1.9519
22.0210	45.9000	2.1424
22.1058	45.9000	2.1424
22.1906	42.1000	2.0518
22.2754	41.6000	2.0396
22.3602	46.4000	2.1541
22.4450	39.4000	1.9849
22.5298	39.7000	1.9925
22.6146	40.3000	2.0075
22.6994	38.1000	1.9519
22.7842	42.5000	2.0616
22.8690	43.2000	2.0785
22.9538	40.9000	2.0224
23.0385	40.5000	2.0125
23.1233	40.2000	2.0050
23.2081	38.8000	1.9698
23.2929	42.3000	2.0567
23.3777	39.3000	1.9824
23.4625	38.9000	1.9723
23.5473	35.6000	1.8868
23.6321	38.6000	1.9647
23.7169	41.4000	2.0347
23.8017	42.3000	2.0567
23.8865	37.4000	1.9339
23.9713	42.1000	2.0518
24.0561	36.5000	1.9105
24.1409	37.5000	1.9365
24.2257	36.9000	1.9209
24.3105	41.9000	2.0469
24.3953	38.6000	1.9647
24.4801	36.0000	1.8974
24.5649	38.8000	1.9698
24.6497	37.2000	1.9287
24.7345	36.4000	1.9079
24.8193	36.4000	1.9079
24.9041	38.7000	1.9672
24.9889	37.1000	1.9261
25.0737	36.5000	1.9105
25.1585	33.6190	1.7894
25.2433	34.7619	1.8195
25.3281	40.2857	1.9588
25.4129	37.0476	1.8784
25.4977	32.6667	1.7638
25.5824	37.9048	1.9000
25.6672	32.7619	1.7664
25.7520	35.0909	1.7861
25.8368	35.0909	1.7861
25.9216	40.1818	1.9113
26.0064	32.2727	1.7129
26.0912	36.7273	1.8273
26.1760	36.7273	1.8273
26.2608	33.0909	1.7344
26.3456	34.1818	1.7628
26.4304	35.0909	1.7861
26.5152	33.0000	1.7321
26.6000	36.4545	1.8205
26.6848	32.7273	1.7249
26.7696	35.1818	1.7884
26.8544	34.0000	1.7581
26.9392	33.6364	1.7487
27.0240	35.1818	1.7884
27.1088	35.7273	1.8022
27.1936	34.0000	1.7581
27.2784	31.8182	1.7008
27.3632	34.4545	1.7698
27.4480	36.4545	1.8205
27.5328	33.9091	1.7557
27.6176	32.3636	1.7153
27.7024	32.9091	1.7297
27.7872	31.7273	1.6983
27.8720	33.5455	1.7463
27.9568	34.6364	1.7745
28.0416	34.2727	1.7651
28.1263	28.0000	1.5954
28.2111	33.5455	1.7463
28.2959	33.7273	1.7510
28.3807	28.8182	1.6186
28.4655	31.5455	1.6934
28.5503	31.9091	1.7032
28.6351	33.0000	1.7321
28.7199	32.5455	1.7201
28.8047	28.2727	1.6032
28.8895	32.5455	1.7201
28.9743	30.0000	1.6514
29.0591	29.1818	1.6288
29.1439	28.9091	1.6211
29.2287	31.7273	1.6983
29.3135	33.4545	1.7439
29.3983	32.4545	1.7177
29.4831	27.0435	1.5335
29.5679	31.9130	1.6658
29.6527	28.6087	1.5772
29.7375	30.2609	1.6222
29.8223	29.7391	1.6081
29.9071	31.7391	1.6613
29.9919	32.0870	1.6704
30.0767	30.9565	1.6407
30.1615	29.5000	1.5679
30.2463	31.8333	1.6287
30.3311	29.0833	1.5568
30.4159	26.5000	1.4860
30.5007	29.6667	1.5723
30.5855	30.8333	1.6029
30.6702	29.4167	1.5657
30.7550	27.2500	1.5069
30.8398	28.8333	1.5501
30.9246	26.4167	1.4837
31.0094	29.3333	1.5635
31.0942	30.6667	1.5986
31.1790	30.0000	1.5811
31.2638	29.0000	1.5546
31.3486	27.5833	1.5161
31.4334	29.1667	1.5590
31.5182	27.6667	1.5184
31.6030	29.3333	1.5635
31.6878	26.2500	1.4790
31.7726	29.0000	1.5546
31.8574	26.4167	1.4837
31.9422	27.5000	1.5138
32.0270	28.5833	1.5434
32.1118	28.9167	1.5523
32.1966	26.0000	1.4720
32.2814	24.6667	1.4337
32.3662	29.9167	1.5789
32.4510	26.3333	1.4814
32.5358	29.1667	1.5590
32.6206	27.4167	1.5115
32.7054	26.8333	1.4954
32.7902	26.3333	1.4814
32.8750	25.6667	1.4625
32.9598	27.0000	1.5000
33.0446	25.2500	1.4506
33.1294	25.7500	1.4649
33.2142	28.0000	1.5275
33.2989	26.1667	1.4767
33.3837	27.4167	1.5115
33.4685	24.5833	1.4313
33.5533	25.5000	1.4577
33.6381	26.7500	1.4930
33.7229	25.4167	1.4554
33.8077	25.5000	1.4577
33.8925	26.0800	1.4444
33.9773	26.0000	1.4422
34.0621	28.3200	1.5052
34.1469	28.0000	1.4967
34.2317	27.2800	1.4773
34.3165	26.3200	1.4511
34.4013	28.2400	1.5031
34.4861	25.6800	1.4333
34.5709	25.9231	1.4121
34.6557	23.1538	1.3346
34.7405	23.6923	1.3500
34.8253	24.8462	1.3825
34.9101	26.5385	1.4288
34.9949	26.0769	1.4163
35.0797	28.0000	1.4676
35.1645	26.3846	1.4246
35.2493	25.6154	1.4037
35.3341	26.5385	1.4288
35.4189	25.9231	1.4121
35.5037	24.6923	1.3782
35.5885	28.6923	1.4856
35.6733	23.5385	1.3456
35.7581	25.9231	1.4121
35.8428	26.9231	1.4391
35.9276	27.4615	1.4534
36.0124	30.0769	1.5211
36.0972	25.2308	1.3931
36.1820	27.0000	1.4412
36.2668	23.3077	1.3390
36.3516	28.9231	1.4916
36.4364	24.1538	1.3631
36.5212	26.4615	1.4267
36.6060	28.3077	1.4756
36.6908	26.5385	1.4288
36.7756	25.9231	1.4121
36.8604	29.0000	1.4936
36.9452	27.0769	1.4432
37.0300	27.6923	1.4595
37.1148	26.0769	1.4163
37.1996	26.1538	1.4184
37.2844	26.0000	1.4142
37.3692	25.8462	1.4100
37.4540	26.0769	1.4163
37.5388	27.0769	1.4432
37.6236	25.1538	1.3910
37.7084	25.4615	1.3995
37.7932	27.0000	1.4412
37.8780	29.8462	1.5152
37.9628	34.3846	1.6263
38.0476	31.7692	1.5633
38.1324	33.3846	1.6025
38.2172	40.6923	1.7692
38.3020	39.3333	1.7069
38.3867	46.5185	1.8563
38.4715	52.2963	1.9682
38.5563	54.3704	2.0068
38.6411	76.6667	2.3831
38.7259	91.7037	2.6063
38.8107	114.2222	2.9088
38.8955	151.2593	3.3473
38.9803	174.4444	3.5947
39.0651	216.2143	3.9299
39.1499	243.7857	4.1729
39.2347	252.5000	4.2468
39.3195	273.8571	4.4228
39.4043	271.8571	4.4066
39.4891	266.5000	4.3630
39.5739	260.3571	4.3124
39.6587	256.2857	4.2786
39.7435	257.2143	4.2863
39.8283	258.9286	4.3006
39.9131	260.7143	4.3154
39.9979	250.2857	4.2282
40.0827	269.2857	4.3857
40.1675	322.7143	4.8011
40.2523	307.6429	4.6877
40.3371	225.2857	4.0115
40.4219	134.1429	3.0954
40.5067	89.7143	2.5314
40.5915	64.6429	2.1488
40.6763	51.5000	1.9180
40.7611	42.5714	1.7438
40.8459	39.3571	1.6767
40.9306	37.8571	1.6444
41.0154	28.9286	1.4375
41.1002	28.8571	1.4357
41.1850	27.7143	1.4070
41.2698	27.8571	1.4106
41.3546	26.8571	1.3851
41.4394	25.2143	1.3420
41.5242	26.9286	1.3869
41.6090	26.0000	1.3628
41.6938	26.3571	1.3721
41.7786	25.8571	1.3590
41.8634	27.5000	1.4015
41.9482	22.0714	1.2556
42.0330	23.2857	1.2897
42.1178	23.8571	1.3054
42.2026	24.0714	1.3113
42.2874	25.5714	1.3515
42.3722	24.7857	1.3306
42.4570	25.5000	1.3496
42.5418	24.3571	1.3190
42.6266	23.7931	1.2810
42.7114	28.0690	1.3913
42.7962	25.7241	1.3319
42.8810	21.7241	1.2240
42.9658	21.7931	1.2260
43.0506	21.3793	1.2143
43.1354	21.5862	1.2201
43.2202	21.8621	1.2279
43.3050	22.4828	1.2452
43.3898	22.6207	1.2490
43.4745	21.6000	1.2000
43.5593	20.8667	1.1795
43.6441	19.5333	1.1411
43.7289	21.8667	1.2074
43.8137	19.0000	1.1255
43.8985	20.6000	1.1719
43.9833	21.2000	1.1888
44.0681	19.0000	1.1255
44.1529	16.1333	1.0371
44.2377	20.6000	1.1719
44.3225	19.9333	1.1528
44.4073	19.4667	1.1392
44.4921	18.8000	1.1195
44.5769	18.8667	1.1215
44.6617	21.6000	1.2000
44.7465	18.4000	1.1075
44.8313	16.2667	1.0414
44.9161	19.7333	1.1470
45.0009	19.6667	1.1450
45.0857	18.3333	1.1055
45.1705	19.2000	1.1314
45.2553	16.8667	1.0604
45.3401	18.4667	1.1096
45.4249	18.2000	1.1015
45.5097	17.4667	1.0791
45.5945	16.7333	1.0562
45.6793	17.2000	1.0708
45.7641	17.1333	1.0687
45.8489	17.8667	1.0914
45.9337	17.2000	1.0708
46.0184	17.1333	1.0687
46.1032	17.5333	1.0812
46.1880	16.7333	1.0562
46.2728	17.6667	1.0853
46.3576	17.3333	1.0750
46.4424	17.8667	1.0914
46.5272	16.8000	1.0583
46.6120	16.5161	1.0323
46.6968	19.8710	1.1323
46.7816	16.3871	1.0282
46.8664	15.6774	1.0057
46.9512	13.8065	0.9438
47.0360	15.5484	1.0016
47.1208	16.7742	1.0403
47.2056	17.8710	1.0738
47.2904	16.9677	1.0463
47.3752	18.2581	1.0853
47.4600	16.6250	1.0193
47.5448	14.9375	0.9662
47.6296	16.6250	1.0193
47.7144	16.7500	1.0232
47.7992	15.6250	0.9882
47.8840	15.5625	0.9862
47.9688	16.4375	1.0136
48.0536	16.0000	1.0000
48.1384	16.8750	1.0270
48.2232	15.6875	0.9902
48.3080	16.1875	1.0058
48.3928	15.8125	0.9941
48.4776	14.1250	0.9396
48.5624	16.6250	1.0193
48.6471	16.0000	1.0000
48.7319	15.0625	0.9703
48.8167	16.0625	1.0020
48.9015	15.1250	0.9723
48.9863	16.9375	1.0289
49.0711	14.8125	0.9622
49.1559	14.6875	0.9581
49.2407	15.8750	0.9961
49.3255	14.9375	0.9662
49.4103	15.5625	0.9862
49.4951	14.8750	0.9642
49.5799	15.4375	0.9823
49.6647	16.3125	1.0097
49.7495	16.5000	1.0155
49.8343	14.8750	0.9642
49.9191	16.7500	1.0232
50.0039	16.2500	1.0078
50.0887	15.4375	0.9823
50.1735	15.0000	0.9682
50.2583	13.8750	0.9312
50.3431	13.7500	0.9270
50.4279	15.3125	0.9783
50.5127	15.3125	0.9783
50.5975	15.8182	0.9791
50.6823	16.5455	1.0014
50.7671	13.5758	0.9071
50.8519	13.9394	0.9191
50.9367	14.4242	0.9350
51.0215	16.0000	0.9847
51.1063	15.3939	0.9659
51.1910	16.7273	1.0069
51.2758	13.7576	0.9131
51.3606	15.1515	0.9583
51.4454	14.0000	0.9211
51.5302	14.5882	0.9264
51.6150	14.5294	0.9245
51.6998	14.3529	0.9189
51.7846	15.5294	0.9558
51.8694	15.7059	0.9612
51.9542	13.9412	0.9056
52.0390	15.8824	0.9666
52.1238	13.7059	0.8979
52.2086	15.7059	0.9612
52.2934	13.1176	0.8784
52.3782	15.1765	0.9448
52.4630	15.7059	0.9612
52.5478	14.1765	0.9132
52.6326	13.8824	0.9037
52.7174	14.5882	0.9264
52.8022	14.5882	0.9264
52.8870	13.1176	0.8784
52.9718	14.2353	0.9151
53.0566	13.1176	0.8784
53.1414	13.5882	0.8940
53.2262	13.0588	0.8765
53.3110	13.8235	0.9017
53.3958	14.2941	0.9170
53.4806	13.4706	0.8902
53.5654	13.0588	0.8765
53.6502	15.4118	0.9521
53.7349	14.8824	0.9356
53.8197	14.4706	0.9226
53.9045	15.2941	0.9485
53.9893	13.8235	0.9017
54.0741	16.1176	0.9737
54.1589	15.6471	0.9594
54.2437	14.9412	0.9375
54.3285	14.3529	0.9189
54.4133	13.8824	0.9037
54.4981	15.1176	0.9430
54.5829	15.2571	0.9337
54.6677	14.6286	0.9143
54.7525	14.7429	0.9179
54.8373	15.8286	0.9510
54.9221	14.9714	0.9249
55.0069	16.1143	0.9596
55.0917	16.0571	0.9579
55.1765	16.2286	0.9630
55.2613	15.3143	0.9355
55.3461	17.6000	1.0029
55.4309	16.0000	0.9562
55.5157	18.3889	1.0107
55.6005	19.1111	1.0304
55.6853	17.5556	0.9876
55.7701	21.5000	1.0929
55.8549	23.0556	1.1318
55.9397	23.6667	1.1467
56.0245	27.5000	1.2360
56.1093	28.8333	1.2656
56.1941	35.2778	1.4000
56.2788	35.8333	1.4109
56.3636	37.2778	1.4391
56.4484	42.3333	1.5336
56.5332	45.2778	1.5860
56.6180	47.6111	1.6264
56.7028	47.2222	1.6197
56.7876	50.4444	1.6741
56.8724	50.1111	1.6685
56.9572	47.5000	1.6245
57.0420	51.1667	1.6860
57.1268	49.0000	1.6499
57.2116	50.1667	1.6694
57.2964	51.9444	1.6988
57.3812	48.2222	1.6368
57.4660	48.6667	1.6443
57.5508	53.1667	1.7186
57.6356	50.8889	1.6814
57.7204	49.7778	1.6630
57.8052	49.5000	1.6583
57.8900	49.1111	1.6518
57.9748	48.8333	1.6471
58.0596	50.6667	1.6777
58.1444	55.0556	1.7489
58.2292	61.8333	1.8534
58.3140	49.3333	1.6555
58.3988	37.9444	1.4519
58.4836	30.1081	1.2757
58.5684	23.4595	1.1261
58.6532	22.9730	1.1144
58.7380	17.7297	0.9790
58.8227	17.8378	0.9819
58.9075	16.3243	0.9394
58.9923	16.2162	0.9362
59.0771	16.8108	0.9533
59.1619	15.8378	0.9253
59.2467	15.0270	0.9013
59.3315	14.7568	0.8931
59.4163	15.9459	0.9284
59.5011	14.5946	0.8882
59.5859	12.0526	0.7965
59.6707	14.3158	0.8680
59.7555	13.1053	0.8305
59.8403	13.3684	0.8388
59.9251	13.3684	0.8388
60.0099	13.3158	0.8372
60.0947	14.0000	0.8584
60.1795	12.7368	0.8188
60.2643	12.8421	0.8221
60.3491	13.3684	0.8388
60.4339	12.9474	0.8255
60.5187	13.3158	0.8372
60.6035	12.0000	0.7947
60.6883	12.8421	0.8221
60.7731	12.7368	0.8188
60.8579	12.7368	0.8188
60.9427	13.6316	0.8470
61.0275	13.2632	0.8355
61.1123	12.0526	0.7965
61.1971	12.6316	0.8154
61.2819	13.6842	0.8487
61.3667	13.1579	0.8322
61.4514	14.0526	0.8600
61.5362	13.0526	0.8288
61.6210	13.6842	0.8487
61.7058	13.1053	0.8305
61.7906	13.5263	0.8437
61.8754	13.0000	0.8272
61.9602	14.0526	0.8600
62.0450	13.2632	0.8355
62.1298	13.6316	0.8470
62.2146	13.4211	0.8405
62.2994	13.5263	0.8437
62.3842	13.2632	0.8355
62.4690	12.0513	0.7861
62.5538	13.7436	0.8395
62.6386	12.0000	0.7845
62.7234	12.5641	0.8027
62.8082	14.3077	0.8566
62.8930	13.1795	0.8221
62.9778	13.1795	0.8221
63.0626	13.5897	0.8348
63.1474	11.4359	0.7658
63.2322	14.0000	0.8473
63.3170	12.4615	0.7994
63.4018	11.9487	0.7828
63.4866	12.4615	0.7994
63.5714	11.8000	0.7681
63.6562	12.5854	0.7835
63.7410	13.0732	0.7986
63.8258	15.0732	0.8575
63.9106	11.5122	0.7494
63.9953	13.3659	0.8075
64.0801	12.0000	0.7651
64.1649	11.4634	0.7478
64.2497	11.5610	0.7510
64.3345	11.6098	0.7525
64.4193	11.7561	0.7573
64.5041	12.8780	0.7926
64.5889	11.9024	0.7620
64.6737	10.0976	0.7018
64.7585	13.1707	0.8015
64.8433	13.3953	0.7893
64.9281	12.9767	0.7769
65.0129	12.6512	0.7671
65.0977	12.0930	0.7500
65.1825	13.1163	0.7811
65.2673	12.1395	0.7514
65.3521	11.2558	0.7236
65.4369	11.0698	0.7175
65.5217	11.8140	0.7413
65.6065	11.3023	0.7250
65.6913	12.0000	0.7471
65.7761	12.0465	0.7485
65.8609	12.2326	0.7543
65.9457	13.2093	0.7838
66.0305	12.7111	0.7516
66.1153	9.9556	0.6652
66.2001	11.2000	0.7055
66.2849	12.4889	0.7450
66.3697	12.6222	0.7490
66.4545	12.2667	0.7384
66.5392	12.4889	0.7450
66.6240	13.4222	0.7724
66.7088	12.9778	0.7595
66.7936	11.6444	0.7194
66.8784	14.4000	0.8000
66.9632	12.5333	0.7463
67.0480	11.6000	0.7180
67.1328	12.8000	0.7542
67.2176	12.2174	0.7288
67.3024	11.9149	0.7121
67.3872	11.7872	0.7082
67.4720	11.9149	0.7121
67.5568	11.9149	0.7121
67.6416	11.7447	0.7069
67.7264	12.0000	0.7146
67.8112	11.0638	0.6861
67.8960	12.0000	0.7146
67.9808	11.4043	0.6966
68.0656	11.0638	0.6861
68.1504	13.3617	0.7540
68.2352	12.3404	0.7247
68.3200	13.5833	0.7523
68.4048	12.0417	0.7083
68.4896	11.7551	0.6927
68.5744	12.2449	0.7070
68.6592	12.4490	0.7128
68.7440	13.5510	0.7437
68.8288	13.3469	0.7381
68.9136	12.4898	0.7140
68.9984	13.3878	0.7392
69.0831	13.7143	0.7482
69.1679	13.5918	0.7448
69.2527	13.3061	0.7370
69.3375	13.5918	0.7448
69.4223	14.7755	0.7766
69.5071	14.1600	0.7526
69.5919	14.2000	0.7537
69.6767	14.4000	0.7589
69.7615	15.1765	0.7715
69.8463	15.3725	0.7764
69.9311	16.4706	0.8037
70.0159	16.5882	0.8065
70.1007	18.5490	0.8529
70.1855	19.6471	0.8778
70.2703	21.2549	0.9130
70.3551	22.8627	0.9469
70.4399	23.7647	0.9654
70.5247	26.4706	1.0189
70.6095	30.2353	1.0889
70.6943	32.5769	1.1194
70.7791	36.1154	1.1786
70.8639	36.8846	1.1911
70.9487	39.3585	1.2187
71.0335	40.1887	1.2315
71.1183	41.3585	1.2493
71.2031	42.4151	1.2651
71.2879	42.5283	1.2668
71.3727	38.6038	1.2070
71.4575	40.7547	1.2401
71.5423	41.3208	1.2487
71.6270	39.7358	1.2245
71.7118	42.1132	1.2606
71.7966	37.2453	1.1855
71.8814	39.2963	1.2064
71.9662	38.8519	1.1996
72.0510	40.5185	1.2250
72.1358	39.1852	1.2047
72.2206	39.4545	1.1978
72.3054	39.8545	1.2039
72.3902	41.1273	1.2229
72.4750	43.6727	1.2602
72.5598	41.8909	1.2342
72.6446	40.8727	1.2191
72.7294	45.8545	1.2913
72.8142	44.2182	1.2680
72.8990	45.1273	1.2810
72.9838	50.2545	1.3518
73.0686	55.5714	1.4088
73.1534	55.0000	1.4015
73.2382	49.2143	1.3258
73.3230	42.1786	1.2273
73.4078	34.0000	1.0922
73.4926	27.7193	0.9862
73.5774	22.5263	0.8890
73.6622	20.7018	0.8523
73.7470	18.5263	0.8063
73.8318	17.0877	0.7743
73.9166	15.8947	0.7468
74.0014	14.9123	0.7234
74.0862	14.2807	0.7079
74.1709	14.4483	0.7058
74.2557	14.4138	0.7050
74.3405	12.9655	0.6686
74.4253	13.5172	0.6827
74.5101	12.0000	0.6433
74.5949	12.9310	0.6678
74.6797	11.8644	0.6342
74.7645	12.4746	0.6503
74.8493	11.3898	0.6214
74.9341	12.9153	0.6617
75.0189	12.0339	0.6387
75.1037	12.4068	0.6485
75.1885	11.8305	0.6333
75.2733	12.6102	0.6538
75.3581	12.4000	0.6429
75.4429	12.3667	0.6420
75.5277	12.2333	0.6386
75.6125	12.1333	0.6360
75.6973	11.6667	0.6236
75.7821	11.9000	0.6298
75.8669	11.3770	0.6108
75.9517	11.7705	0.6212
76.0365	11.7705	0.6212
76.1213	13.2459	0.6590
76.2061	11.4426	0.6125
76.2909	10.2951	0.5810
76.3757	11.5738	0.6160
76.4605	11.3115	0.6090
76.5453	12.0645	0.6238
76.6301	10.1290	0.5716
76.7149	12.1935	0.6272
76.7996	12.1935	0.6272
76.8844	10.9355	0.5939
76.9692	10.7742	0.5895
77.0540	10.8387	0.5913
77.1388	10.2857	0.5714
77.2236	12.5397	0.6309
77.3084	11.7778	0.6115
77.3932	11.2698	0.5981
77.4780	11.2063	0.5965
77.5628	11.7143	0.6098
77.6476	10.8254	0.5862
77.7324	12.0313	0.6132
77.8172	11.4375	0.5978
77.9020	10.9375	0.5846
77.9868	10.5938	0.5754
78.0716	11.2188	0.5921
78.1564	12.2188	0.6179
78.2412	11.1563	0.5905
78.3260	11.0462	0.5830
78.4108	11.5385	0.5958
78.4956	11.1385	0.5854
78.5804	11.3538	0.5911
78.6652	10.5846	0.5707
78.7500	10.5846	0.5707
78.8348	10.7077	0.5740
78.9196	10.7273	0.5701
79.0044	12.0303	0.6038
79.0892	11.6970	0.5954
79.1740	11.9091	0.6007
79.2588	11.4848	0.5899
79.3435	11.3030	0.5852
79.4283	10.3333	0.5596
79.5131	11.6061	0.5930
79.5979	11.4030	0.5834
79.6827	10.5075	0.5600
79.7675	11.2537	0.5796
79.8523	10.9552	0.5719
79.9371	11.2537	0.5796
80.0219	10.4179	0.5577
80.1067	11.1471	0.5726
80.1915	10.5882	0.5580
80.2763	10.6176	0.5588
80.3611	10.2941	0.5502
80.4459	11.7647	0.5882
80.5307	10.4706	0.5549
80.6155	11.4118	0.5793
80.7003	10.1765	0.5471
80.7851	10.0580	0.5399
80.8699	10.3768	0.5484
80.9547	10.0290	0.5392
81.0395	10.8116	0.5598
81.1243	10.4348	0.5500
81.2091	11.4000	0.5707
81.2939	11.9143	0.5834
81.3787	10.7714	0.5548
81.4635	10.1143	0.5376
81.5483	11.3143	0.5686
81.6331	11.2571	0.5671
81.7179	11.6857	0.5778
81.8027	10.7429	0.5540
81.8874	9.8000	0.5292
81.9722	10.6000	0.5503
82.0570	10.5915	0.5462
82.1418	10.1972	0.5360
82.2266	10.3380	0.5396
82.3114	10.4789	0.5433
82.3962	10.6944	0.5450
82.4810	11.8333	0.5733
82.5658	10.9444	0.5514
82.6506	11.0833	0.5549
82.7354	11.9722	0.5767
82.8202	12.2222	0.5827
82.9050	12.8889	0.5984
82.9898	12.6944	0.5938
83.0746	13.0000	0.6009
83.1594	13.3333	0.6086
83.2442	12.1096	0.5760
83.3290	13.5616	0.6096
83.4138	14.2192	0.6242
83.4986	14.7671	0.6361
83.5834	14.0270	0.6157
83.6682	16.9730	0.6773
83.7530	17.8378	0.6943
83.8378	18.5946	0.7089
83.9226	18.4054	0.7053
84.0074	18.3514	0.7043
84.0922	20.3514	0.7416
84.1770	19.7297	0.7302
84.2618	20.6757	0.7475
84.3466	19.5135	0.7262
84.4313	22.0000	0.7711
84.5161	20.7200	0.7433
84.6009	22.9333	0.7820
84.6857	20.8533	0.7457
84.7705	21.3947	0.7503
84.8553	21.2105	0.7471
84.9401	20.8947	0.7415
85.0249	20.0789	0.7269
85.1097	21.1842	0.7466
85.1945	21.3684	0.7499
85.2793	20.8684	0.7411
85.3641	20.3421	0.7317
85.4489	20.2895	0.7307
85.5337	20.8947	0.7415
85.6185	21.7632	0.7568
85.7033	21.1429	0.7411
85.7881	20.0519	0.7217
85.8729	21.7662	0.7519
85.9577	21.4359	0.7414
86.0425	20.8718	0.7316
86.1273	21.4359	0.7414
86.2121	21.5641	0.7436
86.2969	21.1282	0.7360
86.3817	21.9231	0.7498
86.4665	21.7436	0.7467
86.5513	23.1282	0.7701
86.6361	23.0000	0.7679
86.7209	24.8974	0.7990
86.8057	26.6154	0.8261
86.8905	28.1266	0.8438
86.9752	26.5570	0.8200
87.0600	25.7500	0.8023
87.1448	23.1500	0.7608
87.2296	17.9750	0.6704
87.3144	18.5500	0.6810
87.3992	16.2250	0.6369
87.4840	14.1500	0.5948
87.5688	12.0750	0.5494
87.6536	12.2500	0.5534
87.7384	11.5250	0.5368
87.8232	12.1750	0.5517
87.9080	11.8500	0.5443
87.9928	11.7250	0.5414
88.0776	10.6250	0.5154
88.1624	10.8395	0.5173
88.2472	11.4878	0.5293
88.3320	10.5366	0.5069
88.4168	10.9024	0.5157
88.5016	12.1220	0.5437
88.5864	10.0732	0.4957
88.6712	11.6829	0.5338
88.7560	10.5122	0.5064
88.8408	10.4634	0.5052
88.9256	9.8293	0.4896
89.0104	10.3415	0.5022
89.0952	10.1707	0.4981
89.1800	10.9756	0.5174
89.2648	10.9024	0.5157
89.3496	10.6747	0.5072
89.4344	10.0714	0.4897
89.5192	10.6667	0.5040
89.6039	10.0000	0.4880
89.6887	11.1667	0.5156
89.7735	10.2381	0.4937
89.8583	11.0238	0.5123
89.9431	10.1429	0.4914
90.0279	11.3333	0.5195
90.1127	10.0952	0.4903
90.1975	11.0952	0.5140
90.2823	10.5000	0.5000
90.3671	11.1667	0.5156
90.4519	11.1667	0.5156
90.5367	10.4524	0.4989
90.6215	9.7907	0.4772
90.7063	10.9767	0.5052
90.7911	9.6744	0.4743
90.8759	9.9302	0.4806
90.9607	10.4419	0.4928
91.0455	11.2326	0.5111
91.1303	10.6047	0.4966
91.2151	9.9535	0.4811
91.2999	10.3488	0.4906
91.3847	10.8140	0.5015
91.4695	10.3256	0.4900
91.5543	10.9767	0.5052
91.6391	10.7442	0.4999
91.7239	10.6744	0.4982
91.8087	10.0682	0.4784
91.8935	10.4318	0.4869
91.9783	10.7727	0.4948
92.0631	10.2045	0.4816
92.1478	10.6364	0.4917
92.2326	10.7727	0.4948
92.3174	10.5682	0.4901
92.4022	10.7727	0.4948
92.4870	10.8409	0.4964
92.5718	10.8182	0.4959
92.6566	10.9091	0.4979
92.7414	11.0227	0.5005
92.8262	10.9545	0.4990
92.9110	11.0227	0.5005
92.9958	11.7528	0.5139
93.0806	10.2889	0.4782
93.1654	11.1333	0.4974
93.2502	11.0667	0.4959
93.3350	10.6889	0.4874
93.4198	10.5111	0.4833
93.5046	10.2000	0.4761
93.5894	11.5778	0.5072
93.6742	10.8667	0.4914
93.7590	11.5111	0.5058
93.8438	10.8000	0.4899
93.9286	11.0444	0.4954
94.0134	10.8444	0.4909
94.0982	11.6923	0.5069
94.1830	10.9451	0.4905
94.2678	10.3913	0.4753
94.3526	11.9130	0.5089
94.4374	11.6522	0.5033
94.5222	11.7174	0.5047
94.6070	11.9783	0.5103
94.6917	12.4565	0.5204
94.7765	11.8478	0.5075
94.8613	12.0435	0.5117
94.9461	12.9565	0.5307
95.0309	12.4783	0.5208
95.1157	14.0217	0.5521
95.2005	13.1087	0.5338
95.2853	13.0323	0.5294
95.3701	12.9247	0.5272
95.4549	12.7742	0.5241
95.5397	14.6596	0.5585
95.6245	13.4255	0.5345
95.7093	14.2766	0.5511
95.7941	14.8723	0.5625
95.8789	15.1064	0.5669
95.9637	16.4043	0.5908
96.0485	16.2766	0.5885
96.1333	16.9149	0.5999
96.2181	17.7234	0.6141
96.3029	17.5745	0.6115
96.3877	18.5745	0.6287
96.4725	19.1368	0.6347
96.5573	19.0316	0.6330
96.6421	22.2737	0.6848
96.7269	21.9167	0.6757
96.8117	22.9375	0.6913
96.8965	22.7708	0.6888
96.9813	23.7917	0.7040
97.0661	23.5833	0.7009
97.1509	25.2500	0.7253
97.2356	25.5417	0.7295
97.3204	24.8542	0.7196
97.4052	25.5625	0.7298
97.4900	25.9167	0.7348
97.5748	27.1667	0.7523
97.6596	26.5567	0.7400
97.7444	25.9794	0.7319
97.8292	26.7216	0.7423
97.9140	27.4845	0.7528
97.9988	24.2245	0.7031
98.0836	25.8980	0.7270
98.1684	26.1633	0.7307
98.2532	25.7143	0.7244
98.3380	26.7551	0.7389
98.4228	26.1224	0.7301
98.5076	26.9184	0.7412
98.5924	26.1224	0.7301
98.6772	26.1224	0.7301
98.7620	25.6939	0.7241
98.8468	26.5102	0.7355
98.9316	26.0816	0.7296
99.0164	27.7576	0.7488
99.1012	26.9091	0.7373
99.1860	27.1800	0.7373
99.2708	29.1000	0.7629
99.3556	26.9200	0.7338
99.4404	28.1400	0.7502
99.5252	29.3000	0.7655
99.6100	28.1600	0.7505
99.6948	29.8000	0.7720
99.7795	26.6600	0.7302
99.8643	28.4200	0.7539
99.9491	28.1400	0.7502
100.0339	29.9400	0.7738
100.1187	29.9400	0.7738
100.2035	30.2200	0.7774
100.2883	33.1200	0.8139
100.3731	34.6800	0.8328
100.4579	37.8235	0.8612
100.5427	36.3922	0.8447
100.6275	36.7647	0.8490
100.7123	35.6078	0.8356
100.7971	32.9608	0.8039
100.8819	28.6275	0.7492
100.9667	25.7255	0.7102
101.0515	23.4706	0.6784
101.1363	20.2549	0.6302
101.2211	19.0784	0.6116
101.3059	17.7647	0.5902
101.3907	15.4902	0.5511
101.4755	15.5098	0.5515
101.5603	14.4314	0.5319
101.6451	14.6078	0.5352
101.7299	13.8039	0.5203
101.8147	13.6471	0.5173
101.8995	13.2115	0.5041
101.9843	12.4038	0.4884
102.0691	13.0000	0.5000
102.1539	13.5769	0.5110
102.2387	13.0000	0.5000
102.3234	12.6154	0.4925
102.4082	12.8654	0.4974
102.4930	12.6346	0.4929
102.5778	12.3654	0.4876
102.6626	12.9231	0.4985
102.7474	12.1731	0.4838
102.8322	12.1923	0.4842
102.9170	12.2885	0.4861
103.0018	12.1154	0.4827
103.0866	11.5000	0.4703
103.1714	12.1346	0.4831
103.2562	11.7333	0.4727
103.3410	11.4151	0.4641
103.4258	10.9057	0.4536
103.5106	10.9811	0.4552
103.5954	11.6981	0.4698
103.6802	11.9623	0.4751
103.7650	11.9434	0.4747
103.8498	11.2642	0.4610
103.9346	11.4340	0.4645
104.0194	11.3962	0.4637
104.1042	10.9245	0.4540
104.1890	11.6981	0.4698
104.2738	11.7358	0.4706
104.3586	12.8679	0.4927
104.4434	12.1887	0.4796
104.5282	11.6604	0.4690
104.6130	11.9245	0.4743
104.6978	11.7757	0.4692
104.7826	11.6822	0.4673
104.8674	11.6296	0.4641
104.9521	11.2222	0.4559
105.0369	12.4074	0.4793
105.1217	10.9259	0.4498
105.2065	11.6667	0.4648
105.2913	11.5000	0.4615
105.3761	11.8333	0.4681
105.4609	12.0926	0.4732
105.5457	11.3704	0.4589
105.6305	11.1111	0.4536
105.7153	12.0741	0.4729
105.8001	11.0556	0.4525
105.8849	11.6296	0.4641
105.9697	11.5741	0.4630
106.0545	12.2407	0.4761
106.1393	12.1101	0.4714
106.2241	11.6697	0.4627
106.3089	12.2909	0.4727
106.3937	11.7818	0.4628
106.4785	10.9636	0.4465
106.5633	11.6545	0.4603
106.6481	12.2545	0.4720
106.7329	12.7273	0.4810
106.8177	11.0727	0.4487
106.9025	11.3455	0.4542
106.9873	11.6545	0.4603
107.0721	12.1818	0.4706
107.1569	11.9455	0.4660
107.2417	12.4364	0.4755
107.3265	12.0909	0.4689
107.4113	11.6545	0.4603
107.4960	11.2793	0.4508
107.5808	12.5946	0.4764
107.6656	11.4775	0.4548
107.7504	11.0179	0.4436
107.8352	11.0000	0.4432
107.9200	12.1607	0.4660
108.0048	11.2500	0.4482
108.0896	11.9464	0.4619
108.1744	11.7321	0.4577
108.2592	13.0714	0.4831
108.3440	10.6607	0.4363
108.4288	12.2143	0.4670
108.5136	11.6607	0.4563
108.5984	11.0893	0.4450
108.6832	11.5893	0.4549
108.7680	11.4679	0.4587
108.8528	12.6981	0.4895
108.9376	11.7087	0.4768
109.0224	11.3400	0.4762
109.1072	10.9691	0.4756
109.1920	11.8723	0.5026
109.2768	12.7391	0.5262
109.3616	12.2921	0.5256
109.4464	12.1163	0.5308
109.5312	11.8313	0.5339
109.6160	12.2500	0.5534
109.7008	12.9610	0.5802
109.7856	11.8919	0.5669
109.8704	12.7042	0.5982
109.9552	11.7353	0.5875
109.9834	12.1791	0.6030