File: XRD/SPS/7_W0.35Ta0.40Cr0.25_SPS1400C.xye
/* W35Ta40Cr25-SPS; 2ÆŸ 20.00-110.00 by 0.014, dwell 0 s; 20-110 1-2-0.2 - 24_03_31_0015_7-W35Ta40Cr25-SPS-1.xml; count; KAlpha1 1.540593; */
20.0141	1093	33.0606
20.0989	1161	34.0735
20.1837	1274	35.6931
20.2685	1378	37.1214
20.3533	1453	38.1182
20.4381	1484	38.5227
20.5229	1508	38.8330
20.6077	1550	39.3700
20.6925	1677	40.9512
20.7773	1752	41.8569
20.8621	1740	41.7133
20.9469	1779	42.1782
21.0317	1893	43.5086
21.1165	1932	43.9545
21.2013	1980	44.4972
21.2861	2051	45.2880
21.3709	2100	45.8258
21.4557	2146	46.3249
21.5405	2242	47.3498
21.6253	2234	47.2652
21.7101	2288	47.8330
21.7949	2253	47.4658
21.8797	2244	47.3709
21.9645	2226	47.1805
22.0493	2206	46.9681
22.1340	2069	45.4863
22.2188	2098	45.8039
22.3036	2085	45.6618
22.3884	1991	44.6206
22.4732	2074	45.5412
22.5580	1995	44.6654
22.6428	2018	44.9222
22.7276	1954	44.2041
22.8124	2029	45.0444
22.8972	1930	43.9318
22.9820	1978	44.4747
23.0668	1879	43.3474
23.1516	1882	43.3820
23.2364	1875	43.3013
23.3212	1866	43.1972
23.4060	1950	44.1588
23.4908	1796	42.3792
23.5756	1872	43.2666
23.6604	1929	43.9204
23.7452	1857	43.0929
23.8300	1836	42.8486
23.9148	1770	42.0714
23.9996	1780	42.1900
24.0844	1828	42.7551
24.1692	1889	43.4626
24.2540	1880	43.3590
24.3388	1841	42.9069
24.4236	1821	42.6732
24.5084	1841	42.9069
24.5932	1809	42.5323
24.6780	1760	41.9524
24.7627	1698	41.2068
24.8475	1749	41.8210
24.9323	1704	41.2795
25.0171	1740	41.7133
25.1019	1849	43.0000
25.1867	1700	41.2311
25.2715	1708	41.3280
25.3563	1771	42.0833
25.4411	1759	41.9404
25.5259	1619	40.2368
25.6107	1730	41.5933
25.6955	1734	41.6413
25.7803	1655	40.6817
25.8651	1642	40.5216
25.9499	1643	40.5339
26.0347	1703	41.2674
26.1195	1664	40.7922
26.2043	1636	40.4475
26.2891	1621	40.2616
26.3739	1576	39.6989
26.4587	1657	40.7063
26.5435	1679	40.9756
26.6283	1626	40.3237
26.7131	1681	41.0000
26.7979	1635	40.4351
26.8827	1616	40.1995
26.9675	1654	40.6694
27.0523	1605	40.0625
27.1371	1567	39.5854
27.2219	1508	38.8330
27.3066	1554	39.4208
27.3914	1602	40.0250
27.4762	1557	39.4588
27.5610	1535	39.1791
27.6458	1506	38.8072
27.7306	1561	39.5095
27.8154	1532	39.1408
27.9002	1553	39.4081
27.9850	1490	38.6005
28.0698	1483	38.5097
28.1546	1576	39.6989
28.2394	1506	38.8072
28.3242	1515	38.9230
28.4090	1583	39.7869
28.4938	1556	39.4462
28.5786	1521	39.0000
28.6634	1515	38.9230
28.7482	1528	39.0896
28.8330	1506	38.8072
28.9178	1526	39.0640
29.0026	1462	38.2361
29.0874	1536	39.1918
29.1722	1525	39.0512
29.2570	1413	37.5899
29.3418	1460	38.2099
29.4266	1532	39.1408
29.5114	1465	38.2753
29.5962	1440	37.9473
29.6810	1511	38.8716
29.7658	1430	37.8153
29.8505	1387	37.2424
29.9353	1477	38.4318
30.0201	1454	38.1314
30.1049	1400	37.4166
30.1897	1445	38.0132
30.2745	1391	37.2961
30.3593	1444	38.0000
30.4441	1449	38.0657
30.5289	1447	38.0395
30.6137	1368	36.9865
30.6985	1364	36.9324
30.7833	1419	37.6696
30.8681	1418	37.6563
30.9529	1415	37.6165
31.0377	1379	37.1349
31.1225	1371	37.0270
31.2073	1401	37.4299
31.2921	1388	37.2559
31.3769	1443	37.9868
31.4617	1302	36.0832
31.5465	1406	37.4967
31.6313	1304	36.1109
31.7161	1425	37.7492
31.8009	1336	36.5513
31.8857	1314	36.2491
31.9705	1326	36.4143
32.0553	1343	36.6470
32.1401	1321	36.3456
32.2249	1287	35.8748
32.3097	1328	36.4417
32.3944	1318	36.3043
32.4792	1395	37.3497
32.5640	1345	36.6742
32.6488	1358	36.8511
32.7336	1288	35.8887
32.8184	1309	36.1801
32.9032	1342	36.6333
32.9880	1284	35.8329
33.0728	1326	36.4143
33.1576	1339	36.5923
33.2424	1248	35.3270
33.3272	1375	37.0810
33.4120	1305	36.1248
33.4968	1350	36.7423
33.5816	1292	35.9444
33.6664	1291	35.9305
33.7512	1266	35.5809
33.8360	1290	35.9166
33.9208	1362	36.9053
34.0056	1221	34.9428
34.0904	1289	35.9026
34.1752	1299	36.0416
34.2600	1378	37.1214
34.3448	1308	36.1663
34.4296	1292	35.9444
34.5144	1293	35.9583
34.5992	1415	37.6165
34.6840	1335	36.5377
34.7688	1331	36.4829
34.8536	1401	37.4299
34.9383	1414	37.6032
35.0231	1395	37.3497
35.1079	1491	38.6135
35.1927	1363	36.9188
35.2775	1444	38.0000
35.3623	1428	37.7889
35.4471	1559	39.4842
35.5319	1589	39.8623
35.6167	1694	41.1582
35.7015	1810	42.5441
35.7863	1930	43.9318
35.8711	2040	45.1664
35.9559	2230	47.2229
36.0407	2361	48.5901
36.1255	2469	49.6890
36.2103	2460	49.5984
36.2951	2422	49.2138
36.3799	2152	46.3897
36.4647	2003	44.7549
36.5495	1877	43.3244
36.6343	1872	43.2666
36.7191	1776	42.1426
36.8039	1680	40.9878
36.8887	1693	41.1461
36.9735	1703	41.2674
37.0583	1629	40.3609
37.1431	1671	40.8779
37.2279	1631	40.3856
37.3127	1668	40.8412
37.3975	1652	40.6448
37.4823	1731	41.6053
37.5670	1710	41.3521
37.6518	1873	43.2782
37.7366	1906	43.6578
37.8214	2087	45.6837
37.9062	2280	47.7493
37.9910	2645	51.4296
38.0758	3243	56.9473
38.1606	4093	63.9766
38.2454	5173	71.9236
38.3302	6470	80.4363
38.4150	7402	86.0349
38.4998	8690	93.2202
38.5846	9158	95.6974
38.6694	8862	94.1382
38.7542	8148	90.2663
38.8390	7241	85.0941
38.9238	6170	78.5493
39.0086	5185	72.0069
39.0934	4524	67.2607
39.1782	3884	62.3217
39.2630	3395	58.2666
39.3478	3132	55.9643
39.4326	2935	54.1756
39.5174	2827	53.1695
39.6022	2685	51.8170
39.6870	2646	51.4393
39.7718	2762	52.5547
39.8566	3152	56.1427
39.9414	3818	61.7900
40.0262	5609	74.8933
40.1109	9856	99.2774
40.1957	15876	126.0000
40.2805	16413	128.1132
40.3653	11162	105.6504
40.4501	6580	81.1172
40.5349	3913	62.5540
40.6197	2758	52.5167
40.7045	2312	48.0833
40.7893	1993	44.6430
40.8741	1760	41.9524
40.9589	1682	41.0122
41.0437	1613	40.1622
41.1285	1594	39.9249
41.2133	1522	39.0128
41.2981	1486	38.5487
41.3829	1485	38.5357
41.4677	1559	39.4842
41.5525	1583	39.7869
41.6373	1577	39.7115
41.7221	1548	39.3446
41.8069	1734	41.6413
41.8917	1738	41.6893
41.9765	1890	43.4741
42.0613	1983	44.5309
42.1461	2068	45.4753
42.2309	2310	48.0625
42.3157	2466	49.6588
42.4005	2676	51.7301
42.4853	2851	53.3948
42.5701	3034	55.0818
42.6548	3001	54.7814
42.7396	2824	53.1413
42.8244	2617	51.1566
42.9092	2390	48.8876
42.9940	2144	46.3033
43.0788	2039	45.1553
43.1636	1920	43.8178
43.2484	1815	42.6028
43.3332	1789	42.2966
43.4180	1612	40.1497
43.5028	1586	39.8246
43.5876	1456	38.1576
43.6724	1434	37.8682
43.7572	1394	37.3363
43.8420	1282	35.8050
43.9268	1320	36.3318
44.0116	1296	36.0000
44.0964	1274	35.6931
44.1812	1250	35.3553
44.2660	1261	35.5106
44.3508	1243	35.2562
44.4356	1293	35.9583
44.5204	1241	35.2278
44.6052	1189	34.4819
44.6900	1171	34.2199
44.7748	1180	34.3511
44.8596	1142	33.7935
44.9444	1090	33.0151
45.0292	1112	33.3467
45.1140	1038	32.2180
45.1987	1024	32.0000
45.2835	959.0000	30.9677
45.3683	943.0000	30.7083
45.4531	965.0000	31.0644
45.5379	902.0000	30.0333
45.6227	937.0000	30.6105
45.7075	962.0000	31.0161
45.7923	915.0000	30.2490
45.8771	896.0000	29.9333
45.9619	836.0000	28.9137
46.0467	931.0000	30.5123
46.1315	905.0000	30.0832
46.2163	844.0000	29.0517
46.3011	852.0000	29.1890
46.3859	858.0000	29.2916
46.4707	812.0000	28.4956
46.5555	827.0000	28.7576
46.6403	833.0000	28.8617
46.7251	849.0000	29.1376
46.8099	831.0000	28.8271
46.8947	777.0000	27.8747
46.9795	851.0000	29.1719
47.0643	853.0000	29.2062
47.1491	777.0000	27.8747
47.2339	778.0000	27.8927
47.3187	834.0000	28.8791
47.4035	828.0000	28.7750
47.4883	777.0000	27.8747
47.5731	841.0000	29.0000
47.6579	803.0000	28.3373
47.7426	743.0000	27.2580
47.8274	760.0000	27.5681
47.9122	756.0000	27.4955
47.9970	749.0000	27.3679
48.0818	731.0000	27.0370
48.1666	739.0000	27.1846
48.2514	794.0000	28.1780
48.3362	767.0000	27.6948
48.4210	801.0000	28.3019
48.5058	764.0000	27.6405
48.5906	766.0000	27.6767
48.6754	754.0000	27.4591
48.7602	787.0000	28.0535
48.8450	735.0000	27.1109
48.9298	800.0000	28.2843
49.0146	775.0000	27.8388
49.0994	678.0000	26.0384
49.1842	713.0000	26.7021
49.2690	722.0000	26.8701
49.3538	743.0000	27.2580
49.4386	799.0000	28.2666
49.5234	756.0000	27.4955
49.6082	746.0000	27.3130
49.6930	736.0000	27.1293
49.7778	740.0000	27.2029
49.8626	710.0000	26.6458
49.9474	723.0000	26.8887
50.0322	704.0000	26.5330
50.1170	725.0000	26.9258
50.2018	768.0000	27.7128
50.2865	718.0000	26.7955
50.3713	734.0000	27.0924
50.4561	731.0000	27.0370
50.5409	726.0000	26.9444
50.6257	695.0000	26.3629
50.7105	714.0000	26.7208
50.7953	695.0000	26.3629
50.8801	742.0000	27.2397
50.9649	702.0000	26.4953
51.0497	707.0000	26.5895
51.1345	673.0000	25.9422
51.2193	738.0000	27.1662
51.3041	702.0000	26.4953
51.3889	682.0000	26.1151
51.4737	729.0000	27.0000
51.5585	703.0000	26.5141
51.6433	711.0000	26.6646
51.7281	659.0000	25.6710
51.8129	669.0000	25.8650
51.8977	707.0000	26.5895
51.9825	680.0000	26.0768
52.0673	707.0000	26.5895
52.1521	701.0000	26.4764
52.2369	662.0000	25.7294
52.3217	693.0000	26.3249
52.4065	666.0000	25.8070
52.4913	687.0000	26.2107
52.5761	757.0000	27.5136
52.6609	710.0000	26.6458
52.7457	735.0000	27.1109
52.8305	701.0000	26.4764
52.9152	746.0000	27.3130
53.0000	696.0000	26.3818
53.0848	709.0000	26.6271
53.1696	700.0000	26.4575
53.2544	647.0000	25.4362
53.3392	730.0000	27.0185
53.4240	736.0000	27.1293
53.5088	632.0000	25.1396
53.5936	648.0000	25.4558
53.6784	772.0000	27.7849
53.7632	732.0000	27.0555
53.8480	710.0000	26.6458
53.9328	665.0000	25.7876
54.0176	722.0000	26.8701
54.1024	721.0000	26.8514
54.1872	761.0000	27.5862
54.2720	756.0000	27.4955
54.3568	808.0000	28.4253
54.4416	757.0000	27.5136
54.5264	864.0000	29.3939
54.6112	874.0000	29.5635
54.6960	951.0000	30.8383
54.7808	1007	31.7333
54.8656	1065	32.6343
54.9504	1073	32.7567
55.0352	1160	34.0588
55.1200	1239	35.1994
55.2048	1340	36.6060
55.2896	1411	37.5633
55.3744	1495	38.6652
55.4591	1491	38.6135
55.5439	1534	39.1663
55.6287	1524	39.0384
55.7135	1525	39.0512
55.7983	1513	38.8973
55.8831	1506	38.8072
55.9679	1422	37.7094
56.0527	1433	37.8550
56.1375	1268	35.6090
56.2223	1260	35.4965
56.3071	1228	35.0428
56.3919	1131	33.6303
56.4767	1094	33.0757
56.5615	1030	32.0936
56.6463	1015	31.8591
56.7311	1020	31.9374
56.8159	1007	31.7333
56.9007	1021	31.9531
56.9855	933.0000	30.5450
57.0703	895.0000	29.9166
57.1551	917.0000	30.2820
57.2399	879.0000	29.6479
57.3247	849.0000	29.1376
57.4095	933.0000	30.5450
57.4943	832.0000	28.8444
57.5791	798.0000	28.2489
57.6639	891.0000	29.8496
57.7487	926.0000	30.4302
57.8335	1028	32.0624
57.9183	1200	34.6410
58.0030	1561	39.5095
58.0878	2209	47.0000
58.1726	2917	54.0093
58.2574	3159	56.2050
58.3422	2738	52.3259
58.4270	2045	45.2217
58.5118	1521	39.0000
58.5966	1189	34.4819
58.6814	1028	32.0624
58.7662	871.0000	29.5127
58.8510	736.0000	27.1293
58.9358	743.0000	27.2580
59.0206	747.0000	27.3313
59.1054	705.0000	26.5518
59.1902	674.0000	25.9615
59.2750	678.0000	26.0384
59.3598	657.0000	25.6320
59.4446	641.0000	25.3180
59.5294	701.0000	26.4764
59.6142	664.0000	25.7682
59.6990	638.0000	25.2587
59.7838	695.0000	26.3629
59.8686	684.0000	26.1534
59.9534	668.0000	25.8457
60.0382	615.0000	24.7992
60.1230	667.0000	25.8263
60.2078	623.0000	24.9600
60.2926	645.0000	25.3969
60.3774	646.0000	25.4165
60.4622	629.0000	25.0799
60.5469	665.0000	25.7876
60.6317	655.0000	25.5930
60.7165	653.0000	25.5539
60.8013	688.0000	26.2298
60.8861	624.0000	24.9800
60.9709	608.0000	24.6577
61.0557	650.0000	25.4951
61.1405	629.0000	25.0799
61.2253	629.0000	25.0799
61.3101	649.0000	25.4755
61.3949	633.0000	25.1595
61.4797	631.0000	25.1197
61.5645	636.0000	25.2190
61.6493	612.0000	24.7386
61.7341	606.0000	24.6171
61.8189	616.0000	24.8193
61.9037	629.0000	25.0799
61.9885	649.0000	25.4755
62.0733	617.0000	24.8395
62.1581	645.0000	25.3969
62.2429	650.0000	25.4951
62.3277	621.0000	24.9199
62.4125	682.0000	26.1151
62.4973	633.0000	25.1595
62.5821	616.0000	24.8193
62.6669	660.0000	25.6905
62.7517	629.0000	25.0799
62.8365	679.0000	26.0576
62.9213	691.0000	26.2869
63.0061	662.0000	25.7294
63.0908	628.0000	25.0599
63.1756	631.0000	25.1197
63.2604	611.0000	24.7184
63.3452	636.0000	25.2190
63.4300	650.0000	25.4951
63.5148	629.0000	25.0799
63.5996	607.0000	24.6374
63.6844	606.0000	24.6171
63.7692	702.0000	26.4953
63.8540	656.0000	25.6125
63.9388	640.0000	25.2982
64.0236	763.0000	27.6225
64.1084	703.0000	26.5141
64.1932	752.0000	27.4226
64.2780	735.0000	27.1109
64.3628	730.0000	27.0185
64.4476	777.0000	27.8747
64.5324	778.0000	27.8927
64.6172	800.0000	28.2843
64.7020	830.0000	28.8097
64.7868	838.0000	28.9482
64.8716	841.0000	29.0000
64.9564	841.0000	29.0000
65.0412	853.0000	29.2062
65.1260	836.0000	28.9137
65.2108	865.0000	29.4109
65.2956	845.0000	29.0689
65.3804	793.0000	28.1603
65.4652	783.0000	27.9821
65.5500	754.0000	27.4591
65.6348	751.0000	27.4044
65.7195	757.0000	27.5136
65.8043	716.0000	26.7582
65.8891	742.0000	27.2397
65.9739	716.0000	26.7582
66.0587	680.0000	26.0768
66.1435	778.0000	27.8927
66.2283	751.0000	27.4044
66.3131	728.0000	26.9815
66.3979	691.0000	26.2869
66.4827	689.0000	26.2488
66.5675	726.0000	26.9444
66.6523	712.0000	26.6833
66.7371	725.0000	26.9258
66.8219	739.0000	27.1846
66.9067	757.0000	27.5136
66.9915	756.0000	27.4955
67.0763	684.0000	26.1534
67.1611	718.0000	26.7955
67.2459	720.0000	26.8328
67.3307	697.0000	26.4008
67.4155	728.0000	26.9815
67.5003	706.0000	26.5707
67.5851	737.0000	27.1477
67.6699	766.0000	27.6767
67.7547	774.0000	27.8209
67.8395	748.0000	27.3496
67.9243	734.0000	27.0924
68.0091	761.0000	27.5862
68.0939	790.0000	28.1069
68.1787	787.0000	28.0535
68.2634	794.0000	28.1780
68.3482	817.0000	28.5832
68.4330	847.0000	29.1033
68.5178	901.0000	30.0167
68.6026	967.0000	31.0966
68.6874	947.0000	30.7734
68.7722	1043	32.2955
68.8570	1174	34.2637
68.9418	1243	35.2562
69.0266	1312	36.2215
69.1114	1434	37.8682
69.1962	1628	40.3485
69.2810	1787	42.2729
69.3658	1839	42.8836
69.4506	1966	44.3396
69.5354	2010	44.8330
69.6202	1988	44.5870
69.7050	1985	44.5533
69.7898	2055	45.3321
69.8746	1974	44.4297
69.9594	1899	43.5775
70.0442	1888	43.4511
70.1290	1757	41.9166
70.2138	1658	40.7185
70.2986	1533	39.1535
70.3834	1397	37.3765
70.4682	1292	35.9444
70.5530	1232	35.0999
70.6378	1139	33.7491
70.7226	1113	33.3617
70.8073	1023	31.9844
70.8921	1037	32.2025
70.9769	986.0000	31.4006
71.0617	931.0000	30.5123
71.1465	872.0000	29.5296
71.2313	923.0000	30.3809
71.3161	878.0000	29.6311
71.4009	888.0000	29.7993
71.4857	894.0000	29.8998
71.5705	896.0000	29.9333
71.6553	795.0000	28.1957
71.7401	750.0000	27.3861
71.8249	822.0000	28.6705
71.9097	796.0000	28.2135
71.9945	770.0000	27.7489
72.0793	760.0000	27.5681
72.1641	813.0000	28.5132
72.2489	789.0000	28.0891
72.3337	781.0000	27.9464
72.4185	838.0000	28.9482
72.5033	883.0000	29.7153
72.5881	956.0000	30.9192
72.6729	1030	32.0936
72.7577	1198	34.6121
72.8425	1520	38.9872
72.9273	2073	45.5302
73.0121	2703	51.9904
73.0969	3239	56.9122
73.1817	3207	56.6304
73.2665	2935	54.1756
73.3512	2576	50.7543
73.4360	1868	43.2204
73.5208	1513	38.8973
73.6056	1141	33.7787
73.6904	1047	32.3574
73.7752	900.0000	30.0000
73.8600	834.0000	28.8791
73.9448	749.0000	27.3679
74.0296	704.0000	26.5330
74.1144	728.0000	26.9815
74.1992	653.0000	25.5539
74.2840	669.0000	25.8650
74.3688	636.0000	25.2190
74.4536	638.0000	25.2587
74.5384	690.0000	26.2679
74.6232	632.0000	25.1396
74.7080	634.0000	25.1794
74.7928	616.0000	24.8193
74.8776	690.0000	26.2679
74.9624	661.0000	25.7099
75.0472	615.0000	24.7992
75.1320	653.0000	25.5539
75.2168	615.0000	24.7992
75.3016	633.0000	25.1595
75.3864	660.0000	25.6905
75.4712	610.0000	24.6982
75.5560	605.0000	24.5967
75.6408	597.0000	24.4336
75.7256	623.0000	24.9600
75.8104	646.0000	25.4165
75.8951	705.0000	26.5518
75.9799	694.0000	26.3439
76.0647	731.0000	27.0370
76.1495	701.0000	26.4764
76.2343	695.0000	26.3629
76.3191	719.0000	26.8142
76.4039	738.0000	27.1662
76.4887	700.0000	26.4575
76.5735	755.0000	27.4773
76.6583	751.0000	27.4044
76.7431	767.0000	27.6948
76.8279	713.0000	26.7021
76.9127	731.0000	27.0370
76.9975	744.0000	27.2764
77.0823	721.0000	26.8514
77.1671	702.0000	26.4953
77.2519	620.0000	24.8998
77.3367	637.0000	25.2389
77.4215	641.0000	25.3180
77.5063	604.0000	24.5764
77.5911	607.0000	24.6374
77.6759	616.0000	24.8193
77.7607	595.0000	24.3926
77.8455	618.0000	24.8596
77.9303	565.0000	23.7697
78.0151	628.0000	25.0599
78.0999	574.0000	23.9583
78.1847	572.0000	23.9165
78.2695	562.0000	23.7065
78.3543	522.0000	22.8473
78.4390	538.0000	23.1948
78.5238	548.0000	23.4094
78.6086	544.0000	23.3238
78.6934	542.0000	23.2809
78.7782	528.0000	22.9783
78.8630	535.0000	23.1301
78.9478	569.0000	23.8537
79.0326	581.0000	24.1039
79.1174	558.0000	23.6220
79.2022	590.0000	24.2899
79.2870	556.0000	23.5797
79.3718	545.0000	23.3452
79.4566	538.0000	23.1948
79.5414	560.0000	23.6643
79.6262	565.0000	23.7697
79.7110	569.0000	23.8537
79.7958	499.0000	22.3383
79.8806	536.0000	23.1517
79.9654	519.0000	22.7816
80.0502	538.0000	23.1948
80.1350	565.0000	23.7697
80.2198	539.0000	23.2164
80.3046	558.0000	23.6220
80.3894	595.0000	24.3926
80.4742	572.0000	23.9165
80.5590	559.0000	23.6432
80.6438	593.0000	24.3516
80.7286	583.0000	24.1454
80.8134	583.0000	24.1454
80.8982	562.0000	23.7065
80.9830	594.0000	24.3721
81.0677	575.0000	23.9792
81.1525	614.0000	24.7790
81.2373	606.0000	24.6171
81.3221	606.0000	24.6171
81.4069	606.0000	24.6171
81.4917	655.0000	25.5930
81.5765	640.0000	25.2982
81.6613	674.0000	25.9615
81.7461	747.0000	27.3313
81.8309	693.0000	26.3249
81.9157	744.0000	27.2764
82.0005	629.0000	25.0799
82.0853	717.0000	26.7769
82.1701	757.0000	27.5136
82.2549	828.0000	28.7750
82.3397	844.0000	29.0517
82.4245	836.0000	28.9137
82.5093	836.0000	28.9137
82.5941	810.0000	28.4605
82.6789	869.0000	29.4788
82.7637	855.0000	29.2404
82.8485	845.0000	29.0689
82.9333	853.0000	29.2062
83.0181	788.0000	28.0713
83.1029	801.0000	28.3019
83.1877	758.0000	27.5318
83.2725	733.0000	27.0740
83.3573	695.0000	26.3629
83.4421	741.0000	27.2213
83.5269	707.0000	26.5895
83.6116	685.0000	26.1725
83.6964	616.0000	24.8193
83.7812	670.0000	25.8844
83.8660	620.0000	24.8998
83.9508	626.0000	25.0200
84.0356	630.0000	25.0998
84.1204	568.0000	23.8328
84.2052	599.0000	24.4745
84.2900	600.0000	24.4949
84.3748	571.0000	23.8956
84.4596	591.0000	24.3105
84.5444	631.0000	25.1197
84.6292	581.0000	24.1039
84.7140	587.0000	24.2281
84.7988	569.0000	23.8537
84.8836	557.0000	23.6008
84.9684	575.0000	23.9792
85.0532	569.0000	23.8537
85.1380	572.0000	23.9165
85.2228	581.0000	24.1039
85.3076	583.0000	24.1454
85.3924	577.0000	24.0208
85.4772	594.0000	24.3721
85.5620	531.0000	23.0434
85.6468	602.0000	24.5357
85.7316	605.0000	24.5967
85.8164	622.0000	24.9399
85.9012	614.0000	24.7790
85.9860	594.0000	24.3721
86.0708	576.0000	24.0000
86.1555	613.0000	24.7588
86.2403	647.0000	25.4362
86.3251	677.0000	26.0192
86.4099	698.0000	26.4197
86.4947	752.0000	27.4226
86.5795	892.0000	29.8664
86.6643	1091	33.0303
86.7491	1225	35.0000
86.8339	1471	38.3536
86.9187	1460	38.2099
87.0035	1420	37.6829
87.0883	1380	37.1484
87.1731	1245	35.2846
87.2579	1075	32.7872
87.3427	965.0000	31.0644
87.4275	818.0000	28.6007
87.5123	740.0000	27.2029
87.5971	704.0000	26.5330
87.6819	661.0000	25.7099
87.7667	662.0000	25.7294
87.8515	673.0000	25.9422
87.9363	651.0000	25.5147
88.0211	608.0000	24.6577
88.1059	571.0000	23.8956
88.1907	571.0000	23.8956
88.2755	593.0000	24.3516
88.3603	633.0000	25.1595
88.4451	587.0000	24.2281
88.5299	554.0000	23.5372
88.6147	649.0000	25.4755
88.6994	565.0000	23.7697
88.7842	544.0000	23.3238
88.8690	535.0000	23.1301
88.9538	559.0000	23.6432
89.0386	532.0000	23.0651
89.1234	550.0000	23.4521
89.2082	561.0000	23.6854
89.2930	542.0000	23.2809
89.3778	548.0000	23.4094
89.4626	566.0000	23.7908
89.5474	560.0000	23.6643
89.6322	559.0000	23.6432
89.7170	543.0000	23.3024
89.8018	561.0000	23.6854
89.8866	534.0000	23.1084
89.9714	521.0000	22.8254
90.0562	542.0000	23.2809
90.1410	540.0000	23.2379
90.2258	566.0000	23.7908
90.3106	520.0000	22.8035
90.3954	592.0000	24.3311
90.4802	534.0000	23.1084
90.5650	588.0000	24.2487
90.6498	584.0000	24.1661
90.7346	561.0000	23.6854
90.8194	551.0000	23.4734
90.9042	565.0000	23.7697
90.9890	570.0000	23.8747
91.0738	582.0000	24.1247
91.1586	592.0000	24.3311
91.2433	534.0000	23.1084
91.3281	589.0000	24.2693
91.4129	617.0000	24.8395
91.4977	590.0000	24.2899
91.5825	617.0000	24.8395
91.6673	593.0000	24.3516
91.7521	612.0000	24.7386
91.8369	622.0000	24.9399
91.9217	559.0000	23.6432
92.0065	616.0000	24.8193
92.0913	608.0000	24.6577
92.1761	610.0000	24.6982
92.2609	636.0000	25.2190
92.3457	607.0000	24.6374
92.4305	595.0000	24.3926
92.5153	630.0000	25.0998
92.6001	608.0000	24.6577
92.6849	589.0000	24.2693
92.7697	594.0000	24.3721
92.8545	679.0000	26.0576
92.9393	644.0000	25.3772
93.0241	624.0000	24.9800
93.1089	615.0000	24.7992
93.1937	615.0000	24.7992
93.2785	641.0000	25.3180
93.3633	641.0000	25.3180
93.4481	663.0000	25.7488
93.5329	629.0000	25.0799
93.6177	714.0000	26.7208
93.7025	698.0000	26.4197
93.7872	690.0000	26.2679
93.8720	681.0000	26.0960
93.9568	740.0000	27.2029
94.0416	762.0000	27.6043
94.1264	764.0000	27.6405
94.2112	771.0000	27.7669
94.2960	740.0000	27.2029
94.3808	806.0000	28.3901
94.4656	797.0000	28.2312
94.5504	822.0000	28.6705
94.6352	846.0000	29.0861
94.7200	832.0000	28.8444
94.8048	899.0000	29.9833
94.8896	901.0000	30.0167
94.9744	853.0000	29.2062
95.0592	920.0000	30.3315
95.1440	862.0000	29.3598
95.2288	832.0000	28.8444
95.3136	877.0000	29.6142
95.3984	886.0000	29.7658
95.4832	830.0000	28.8097
95.5680	835.0000	28.8964
95.6528	799.0000	28.2666
95.7376	850.0000	29.1548
95.8224	784.0000	28.0000
95.9072	760.0000	27.5681
95.9920	761.0000	27.5862
96.0768	735.0000	27.1109
96.1616	702.0000	26.4953
96.2464	712.0000	26.6833
96.3312	685.0000	26.1725
96.4159	679.0000	26.0576
96.5007	700.0000	26.4575
96.5855	731.0000	27.0370
96.6703	674.0000	25.9615
96.7551	626.0000	25.0200
96.8399	659.0000	25.6710
96.9247	602.0000	24.5357
97.0095	615.0000	24.7992
97.0943	567.0000	23.8118
97.1791	629.0000	25.0799
97.2639	642.0000	25.3377
97.3487	590.0000	24.2899
97.4335	621.0000	24.9199
97.5183	595.0000	24.3926
97.6031	544.0000	23.3238
97.6879	562.0000	23.7065
97.7727	606.0000	24.6171
97.8575	601.0000	24.5153
97.9423	581.0000	24.1039
98.0271	543.0000	23.3024
98.1119	597.0000	24.4336
98.1967	573.0000	23.9374
98.2815	560.0000	23.6643
98.3663	576.0000	24.0000
98.4511	560.0000	23.6643
98.5359	575.0000	23.9792
98.6207	606.0000	24.6171
98.7055	580.0000	24.0832
98.7903	556.0000	23.5797
98.8751	565.0000	23.7697
98.9598	558.0000	23.6220
99.0446	578.0000	24.0416
99.1294	590.0000	24.2899
99.2142	578.0000	24.0416
99.2990	574.0000	23.9583
99.3838	661.0000	25.7099
99.4686	589.0000	24.2693
99.5534	600.0000	24.4949
99.6382	625.0000	25.0000
99.7230	666.0000	25.8070
99.8078	724.0000	26.9072
99.8926	747.0000	27.3313
99.9774	818.0000	28.6007
100.0622	908.0000	30.1330
100.1470	1081	32.8786
100.2318	1205	34.7131
100.3166	1430	37.8153
100.4014	1635	40.4351
100.4862	1908	43.6807
100.5710	1989	44.5982
100.6558	1922	43.8406
100.7406	1726	41.5452
100.8254	1704	41.2795
100.9102	1515	38.9230
100.9950	1257	35.4542
101.0798	1120	33.4664
101.1646	936.0000	30.5941
101.2494	851.0000	29.1719
101.3342	719.0000	26.8142
101.4190	681.0000	26.0960
101.5037	670.0000	25.8844
101.5885	652.0000	25.5343
101.6733	599.0000	24.4745
101.7581	544.0000	23.3238
101.8429	580.0000	24.0832
101.9277	575.0000	23.9792
102.0125	540.0000	23.2379
102.0973	483.0000	21.9773
102.1821	562.0000	23.7065
102.2669	537.0000	23.1733
102.3517	536.0000	23.1517
102.4365	543.0000	23.3024
102.5213	518.0000	22.7596
102.6061	520.0000	22.8035
102.6909	527.0000	22.9565
102.7757	570.0000	23.8747
102.8605	510.0000	22.5832
102.9453	539.0000	23.2164
103.0301	545.0000	23.3452
103.1149	489.0000	22.1133
103.1997	543.0000	23.3024
103.2845	513.0000	22.6495
103.3693	540.0000	23.2379
103.4541	542.0000	23.2809
103.5389	490.0000	22.1359
103.6237	478.0000	21.8632
103.7085	533.0000	23.0868
103.7933	485.0000	22.0227
103.8781	516.0000	22.7156
103.9629	550.0000	23.4521
104.0476	529.0000	23.0000
104.1324	527.0000	22.9565
104.2172	481.0000	21.9317
104.3020	510.0000	22.5832
104.3868	522.0000	22.8473
104.4716	546.0000	23.3666
104.5564	524.0000	22.8910
104.6412	556.0000	23.5797
104.7260	495.0000	22.2486
104.8108	522.0000	22.8473
104.8956	529.0000	23.0000
104.9804	462.0000	21.4942
105.0652	497.0000	22.2935
105.1500	514.0000	22.6716
105.2348	528.0000	22.9783
105.3196	536.0000	23.1517
105.4044	517.0000	22.7376
105.4892	524.0000	22.8910
105.5740	505.0000	22.4722
105.6588	545.0000	23.3452
105.7436	531.0000	23.0434
105.8284	491.0000	22.1585
105.9132	499.0000	22.3383
105.9980	500.0000	22.3607
106.0828	540.0000	23.2379
106.1676	491.0000	22.1585
106.2524	548.0000	23.4094
106.3372	529.0000	23.0000
106.4220	532.0000	23.0651
106.5068	525.0000	22.9129
106.5915	577.0000	24.0208
106.6763	534.0000	23.1084
106.7611	523.0000	22.8692
106.8459	536.0000	23.1517
106.9307	537.0000	23.1733
107.0155	585.0000	24.1868
107.1003	547.0000	23.3880
107.1851	555.0000	23.5584
107.2699	570.0000	23.8747
107.3547	592.0000	24.3311
107.4395	600.0000	24.4949
107.5243	569.0000	23.8537
107.6091	592.0000	24.3311
107.6939	578.0000	24.0416
107.7787	610.0000	24.6982
107.8635	593.0000	24.3516
107.9483	579.0000	24.0624
108.0331	641.0000	25.3180
108.1179	651.0000	25.5147
108.2027	562.0000	23.7065
108.2875	633.0000	25.1595
108.3723	603.0000	24.5561
108.4571	606.0000	24.6171
108.5419	601.0000	24.5153
108.6267	619.0000	24.8797
108.7115	669.0000	25.8650
108.7963	617.0000	24.8395
108.8811	588.0000	24.2487
108.9659	656.0000	25.6125
109.0507	631.0000	25.1197
109.1355	652.0000	25.5343
109.2202	600.0000	24.4949
109.3050	639.0000	25.2784
109.3898	611.0000	24.7184
109.4746	641.0000	25.3180
109.5594	667.0000	25.8263
109.6442	703.0000	26.5141
109.7290	641.0000	25.3180
109.8138	670.0000	25.8844
109.8986	665.0000	25.7876
109.9834	664.0000	25.7682
110.0117	640.0000	25.2982