File: XRD/SPS/9_W0.40Ta0.40Ti0.20_SPS1400C_txt.txt
1.544427
20.0707	50.3333	2.3649
20.1555	50.1111	2.3596
20.2403	51.5556	2.3934
20.3251	49.0000	2.3333
20.4099	54.7778	2.4671
20.4946	50.4444	2.3675
20.5794	47.6667	2.3014
20.6642	49.1111	2.3360
20.7490	45.4737	2.1879
20.8338	45.5789	2.1904
20.9186	46.2105	2.2055
21.0034	43.8947	2.1495
21.0882	49.4737	2.2821
21.1730	48.7368	2.2650
21.2578	44.0000	2.1521
21.3426	48.9000	2.2113
21.4274	45.1000	2.1237
21.5122	42.7000	2.0664
21.5970	43.1000	2.0761
21.6818	46.1000	2.1471
21.7666	46.1000	2.1471
21.8514	46.1000	2.1471
21.9362	46.5000	2.1564
22.0210	46.2000	2.1494
22.1058	43.8000	2.0928
22.1906	44.8000	2.1166
22.2754	45.5000	2.1331
22.3602	44.0000	2.0976
22.4450	43.9000	2.0952
22.5298	41.2000	2.0298
22.6146	38.7000	1.9672
22.6994	43.2000	2.0785
22.7842	45.0000	2.1213
22.8690	41.4000	2.0347
22.9538	40.6000	2.0149
23.0385	44.8000	2.1166
23.1233	42.2000	2.0543
23.2081	39.0000	1.9748
23.2929	46.0000	2.1448
23.3777	43.0000	2.0736
23.4625	45.4000	2.1307
23.5473	36.9000	1.9209
23.6321	42.5000	2.0616
23.7169	41.0000	2.0248
23.8017	40.6000	2.0149
23.8865	40.1000	2.0025
23.9713	42.5000	2.0616
24.0561	39.6000	1.9900
24.1409	40.8000	2.0199
24.2257	42.0000	2.0494
24.3105	37.5000	1.9365
24.3953	36.6000	1.9131
24.4801	37.6000	1.9391
24.5649	37.3000	1.9313
24.6497	35.2000	1.8762
24.7345	35.9000	1.8947
24.8193	34.6000	1.8601
24.9041	39.7000	1.9925
24.9889	37.6000	1.9391
25.0737	35.9000	1.8947
25.1585	36.0952	1.8541
25.2433	34.6667	1.8170
25.3281	40.0000	1.9518
25.4129	40.4762	1.9634
25.4977	35.0476	1.8270
25.5824	34.5714	1.8145
25.6672	35.2381	1.8319
25.7520	37.0000	1.8340
25.8368	38.9091	1.8807
25.9216	34.9091	1.7814
26.0064	34.0909	1.7604
26.0912	34.0000	1.7581
26.1760	33.5455	1.7463
26.2608	35.0000	1.7838
26.3456	37.0909	1.8363
26.4304	36.7273	1.8273
26.5152	34.6364	1.7745
26.6000	31.0909	1.6812
26.6848	31.1818	1.6837
26.7696	35.6364	1.7999
26.8544	34.2727	1.7651
26.9392	30.0909	1.6539
27.0240	31.8182	1.7008
27.1088	32.0000	1.7056
27.1936	30.0000	1.6514
27.2784	34.7273	1.7768
27.3632	33.1818	1.7368
27.4480	32.7273	1.7249
27.5328	32.8182	1.7273
27.6176	34.6364	1.7745
27.7024	30.5455	1.6664
27.7872	31.1818	1.6837
27.8720	34.7273	1.7768
27.9568	31.2727	1.6861
28.0416	36.8182	1.8295
28.1263	32.5455	1.7201
28.2111	31.0000	1.6787
28.2959	33.5455	1.7463
28.3807	31.7273	1.6983
28.4655	30.1818	1.6564
28.5503	31.9091	1.7032
28.6351	30.8182	1.6738
28.7199	30.4545	1.6639
28.8047	30.7273	1.6713
28.8895	31.1818	1.6837
28.9743	28.7273	1.6160
29.0591	31.5455	1.6934
29.1439	32.9091	1.7297
29.2287	29.0000	1.6237
29.3135	32.6364	1.7225
29.3983	31.5455	1.6934
29.4831	32.9565	1.6929
29.5679	28.6087	1.5772
29.6527	26.8696	1.5286
29.7375	29.5652	1.6034
29.8223	28.1739	1.5652
29.9071	30.8696	1.6384
29.9919	33.0435	1.6951
30.0767	27.5652	1.5482
30.1615	25.6667	1.4625
30.2463	29.1667	1.5590
30.3311	27.3333	1.5092
30.4159	28.1667	1.5321
30.5007	28.0000	1.5275
30.5855	27.7500	1.5207
30.6702	29.5833	1.5701
30.7550	25.6667	1.4625
30.8398	29.6667	1.5723
30.9246	26.6667	1.4907
31.0094	27.8333	1.5230
31.0942	27.3333	1.5092
31.1790	26.5833	1.4884
31.2638	28.1667	1.5321
31.3486	25.4167	1.4554
31.4334	27.4167	1.5115
31.5182	26.0833	1.4743
31.6030	26.0833	1.4743
31.6878	29.0000	1.5546
31.7726	27.0000	1.5000
31.8574	28.2500	1.5343
31.9422	26.7500	1.4930
32.0270	29.2500	1.5612
32.1118	27.0833	1.5023
32.1966	26.4167	1.4837
32.2814	28.5000	1.5411
32.3662	29.1667	1.5590
32.4510	26.5833	1.4884
32.5358	24.7500	1.4361
32.6206	26.3333	1.4814
32.7054	27.0000	1.5000
32.7902	24.0833	1.4167
32.8750	27.3333	1.5092
32.9598	28.5833	1.5434
33.0446	25.2500	1.4506
33.1294	29.1667	1.5590
33.2142	26.4167	1.4837
33.2989	27.5000	1.5138
33.3837	30.0833	1.5833
33.4685	23.5833	1.4019
33.5533	29.4167	1.5657
33.6381	25.5833	1.4601
33.7229	27.5833	1.5161
33.8077	26.9167	1.4977
33.8925	25.1200	1.4176
33.9773	26.6400	1.4599
34.0621	25.9200	1.4400
34.1469	25.3600	1.4244
34.2317	24.1600	1.3903
34.3165	25.7600	1.4355
34.4013	24.5600	1.4017
34.4861	23.1200	1.3600
34.5709	23.0769	1.3323
34.6557	25.5385	1.4016
34.7405	26.3846	1.4246
34.8253	26.1538	1.4184
34.9101	27.8462	1.4636
34.9949	26.5385	1.4288
35.0797	27.1538	1.4453
35.1645	25.6154	1.4037
35.2493	24.9231	1.3846
35.3341	25.6154	1.4037
35.4189	23.3077	1.3390
35.5037	26.3846	1.4246
35.5885	22.9231	1.3279
35.6733	25.6154	1.4037
35.7581	24.0000	1.3587
35.8428	26.9231	1.4391
35.9276	26.2308	1.4205
36.0124	24.8462	1.3825
36.0972	22.3846	1.3122
36.1820	25.8462	1.4100
36.2668	25.3077	1.3953
36.3516	21.3846	1.2826
36.4364	22.7692	1.3234
36.5212	24.3077	1.3674
36.6060	24.8462	1.3825
36.6908	24.7692	1.3803
36.7756	23.0769	1.3323
36.8604	26.8462	1.4370
36.9452	26.7692	1.4350
37.0300	24.5385	1.3739
37.1148	24.7692	1.3803
37.1996	29.4615	1.5054
37.2844	29.6154	1.5093
37.3692	27.4615	1.4534
37.4540	26.4615	1.4267
37.5388	30.0769	1.5211
37.6236	31.0000	1.5442
37.7084	31.1538	1.5480
37.7932	32.8462	1.5895
37.8780	32.7692	1.5877
37.9628	33.9231	1.6154
38.0476	37.0000	1.6871
38.1324	43.0769	1.8203
38.2172	53.8462	2.0352
38.3020	62.6667	2.1545
38.3867	87.2593	2.5424
38.4715	122.5185	3.0125
38.5563	188.1481	3.7332
38.6411	283.4074	4.5818
38.7259	312.6667	4.8125
38.8107	290.3704	4.6378
38.8955	240.8889	4.2242
38.9803	207.5556	3.9210
39.0651	190.1429	3.6853
39.1499	170.3571	3.4883
39.2347	164.2857	3.4256
39.3195	164.5714	3.4286
39.4043	166.8571	3.4523
39.4891	167.7857	3.4619
39.5739	175.1429	3.5370
39.6587	179.8571	3.5843
39.7435	194.0000	3.7225
39.8283	200.2143	3.7817
39.9131	205.6429	3.8326
39.9979	194.2143	3.7246
40.0827	186.9286	3.6540
40.1675	185.9286	3.6443
40.2523	237.8571	4.1219
40.3371	255.7857	4.2744
40.4219	163.0714	3.4129
40.5067	84.1429	2.4516
40.5915	57.6429	2.0291
40.6763	40.7857	1.7068
40.7611	41.1429	1.7143
40.8459	31.9286	1.5102
40.9306	29.8571	1.4604
41.0154	27.5000	1.4015
41.1002	28.1429	1.4178
41.1850	28.2143	1.4196
41.2698	27.8571	1.4106
41.3546	25.0714	1.3382
41.4394	25.5000	1.3496
41.5242	22.6429	1.2717
41.6090	23.7143	1.3015
41.6938	22.2143	1.2597
41.7786	25.3571	1.3458
41.8634	25.0714	1.3382
41.9482	21.4286	1.2372
42.0330	22.0000	1.2536
42.1178	24.5000	1.3229
42.2026	21.2143	1.2310
42.2874	22.4286	1.2657
42.3722	21.2143	1.2310
42.4570	21.9286	1.2515
42.5418	22.2143	1.2597
42.6266	22.8276	1.2547
42.7114	22.6207	1.2490
42.7962	22.2069	1.2375
42.8810	20.6897	1.1945
42.9658	21.1034	1.2064
43.0506	20.9655	1.2025
43.1354	19.7931	1.1683
43.2202	20.3448	1.1845
43.3050	20.0690	1.1765
43.3898	21.5862	1.2201
43.4745	22.1333	1.2147
43.5593	20.6667	1.1738
43.6441	20.6000	1.1719
43.7289	20.4667	1.1681
43.8137	19.6000	1.1431
43.8985	19.8667	1.1508
43.9833	18.2000	1.1015
44.0681	20.0667	1.1566
44.1529	19.4667	1.1392
44.2377	19.4000	1.1372
44.3225	19.3333	1.1353
44.4073	19.8000	1.1489
44.4921	18.2667	1.1035
44.5769	18.1333	1.0995
44.6617	19.7333	1.1470
44.7465	19.4667	1.1392
44.8313	20.2000	1.1605
44.9161	20.4000	1.1662
45.0009	18.2000	1.1015
45.0857	22.1333	1.2147
45.1705	17.7333	1.0873
45.2553	18.5333	1.1116
45.3401	18.8000	1.1195
45.4249	16.6000	1.0520
45.5097	17.8667	1.0914
45.5945	19.0667	1.1274
45.6793	19.2000	1.1314
45.7641	16.2667	1.0414
45.8489	18.0000	1.0954
45.9337	18.2667	1.1035
46.0184	18.0000	1.0954
46.1032	18.8000	1.1195
46.1880	19.4667	1.1392
46.2728	17.8667	1.0914
46.3576	17.6000	1.0832
46.4424	17.5333	1.0812
46.5272	16.2000	1.0392
46.6120	17.3548	1.0581
46.6968	16.9677	1.0463
46.7816	18.0645	1.0796
46.8664	17.6129	1.0660
46.9512	18.1935	1.0834
47.0360	17.5484	1.0640
47.1208	16.7742	1.0403
47.2056	17.4839	1.0621
47.2904	18.4516	1.0911
47.3752	17.1613	1.0522
47.4600	18.3125	1.0698
47.5448	17.3750	1.0421
47.6296	16.1875	1.0058
47.7144	16.5625	1.0174
47.7992	16.5625	1.0174
47.8840	17.0625	1.0327
47.9688	17.4375	1.0440
48.0536	18.4375	1.0735
48.1384	17.3125	1.0402
48.2232	16.1250	1.0039
48.3080	16.3750	1.0117
48.3928	16.6875	1.0213
48.4776	16.6250	1.0193
48.5624	18.1875	1.0662
48.6471	16.0625	1.0020
48.7319	17.0625	1.0327
48.8167	17.0625	1.0327
48.9015	15.5000	0.9843
48.9863	13.2500	0.9100
49.0711	16.7500	1.0232
49.1559	17.1875	1.0364
49.2407	15.3750	0.9803
49.3255	15.1250	0.9723
49.4103	14.4375	0.9499
49.4951	16.5000	1.0155
49.5799	15.9375	0.9980
49.6647	15.7500	0.9922
49.7495	16.5000	1.0155
49.8343	16.1250	1.0039
49.9191	15.7500	0.9922
50.0039	15.3750	0.9803
50.0887	14.5000	0.9520
50.1735	13.4375	0.9164
50.2583	15.6250	0.9882
50.3431	17.1250	1.0346
50.4279	16.6875	1.0213
50.5127	15.2500	0.9763
50.5975	14.0000	0.9211
50.6823	14.8485	0.9486
50.7671	16.1212	0.9885
50.8519	16.6061	1.0032
50.9367	14.9697	0.9525
51.0215	14.1818	0.9271
51.1063	15.3333	0.9640
51.1910	15.5152	0.9697
51.2758	15.0303	0.9544
51.3606	15.8788	0.9810
51.4454	15.0303	0.9544
51.5302	13.5882	0.8940
51.6150	16.0588	0.9719
51.6998	15.1765	0.9448
51.7846	15.8824	0.9666
51.8694	15.4118	0.9521
51.9542	14.9412	0.9375
52.0390	14.4706	0.9226
52.1238	13.5882	0.8940
52.2086	15.4118	0.9521
52.2934	16.3529	0.9808
52.3782	14.5294	0.9245
52.4630	15.4118	0.9521
52.5478	14.0000	0.9075
52.6326	13.6471	0.8960
52.7174	14.0000	0.9075
52.8022	14.8824	0.9356
52.8870	14.1765	0.9132
52.9718	13.7059	0.8979
53.0566	15.1765	0.9448
53.1414	13.7647	0.8998
53.2262	15.1765	0.9448
53.3110	14.1765	0.9132
53.3958	14.1765	0.9132
53.4806	14.1765	0.9132
53.5654	16.2353	0.9772
53.6502	15.5294	0.9558
53.7349	14.4706	0.9226
53.8197	14.3529	0.9189
53.9045	14.7647	0.9319
53.9893	13.7647	0.8998
54.0741	15.2353	0.9467
54.1589	15.9412	0.9684
54.2437	15.2941	0.9485
54.3285	14.0588	0.9094
54.4133	15.0588	0.9412
54.4981	16.4118	0.9825
54.5829	17.0286	0.9864
54.6677	15.2000	0.9320
54.7525	16.1143	0.9596
54.8373	16.2286	0.9630
54.9221	16.2857	0.9647
55.0069	16.1714	0.9613
55.0917	19.6000	1.0583
55.1765	19.2000	1.0474
55.2613	20.9143	1.0932
55.3461	23.5429	1.1599
55.4309	29.5429	1.2993
55.5157	30.6111	1.3041
55.6005	37.9444	1.4519
55.6853	41.3889	1.5164
55.7701	44.3889	1.5704
55.8549	46.7778	1.6121
55.9397	44.3889	1.5704
56.0245	43.0000	1.5456
56.1093	35.2222	1.3989
56.1941	39.9444	1.4897
56.2788	36.6111	1.4262
56.3636	33.8333	1.3710
56.4484	37.1667	1.4369
56.5332	34.8333	1.3911
56.6180	36.0000	1.4142
56.7028	34.5556	1.3856
56.7876	36.1111	1.4164
56.8724	40.2222	1.4948
56.9572	36.7778	1.4294
57.0420	38.1667	1.4561
57.1268	39.5556	1.4824
57.2116	38.8333	1.4688
57.2964	42.2222	1.5316
57.3812	42.5000	1.5366
57.4660	44.3889	1.5704
57.5508	41.7222	1.5225
57.6356	45.5556	1.5909
57.7204	46.7778	1.6121
57.8052	45.3889	1.5880
57.8900	42.7778	1.5416
57.9748	39.6667	1.4845
58.0596	38.2222	1.4572
58.1444	40.0000	1.4907
58.2292	53.6111	1.7258
58.3140	51.5556	1.6924
58.3988	40.7778	1.5051
58.4836	34.4865	1.3653
58.5684	25.2973	1.1694
58.6532	18.1622	0.9908
58.7380	17.3514	0.9685
58.8227	17.5135	0.9730
58.9075	15.3514	0.9109
58.9923	14.9730	0.8996
59.0771	14.3784	0.8816
59.1619	13.5135	0.8547
59.2467	14.4324	0.8833
59.3315	13.4595	0.8530
59.4163	14.2162	0.8766
59.5011	14.3784	0.8816
59.5859	13.9474	0.8568
59.6707	14.2632	0.8664
59.7555	13.0526	0.8288
59.8403	13.7895	0.8519
59.9251	13.7895	0.8519
60.0099	14.4737	0.8728
60.0947	12.9474	0.8255
60.1795	12.4737	0.8103
60.2643	12.5263	0.8120
60.3491	11.8421	0.7895
60.4339	14.1053	0.8616
60.5187	14.1053	0.8616
60.6035	14.0000	0.8584
60.6883	14.7895	0.8823
60.7731	14.8947	0.8854
60.8579	12.6316	0.8154
60.9427	13.4737	0.8421
61.0275	12.8421	0.8221
61.1123	13.1053	0.8305
61.1971	11.9474	0.7930
61.2819	14.5263	0.8744
61.3667	13.3158	0.8372
61.4514	12.8947	0.8238
61.5362	13.0526	0.8288
61.6210	12.5789	0.8137
61.7058	11.6842	0.7842
61.7906	13.4737	0.8421
61.8754	13.7368	0.8503
61.9602	12.3684	0.8068
62.0450	14.5263	0.8744
62.1298	15.2632	0.8963
62.2146	13.7368	0.8503
62.2994	13.1053	0.8305
62.3842	12.6316	0.8154
62.4690	13.4359	0.8301
62.5538	12.7179	0.8076
62.6386	13.5897	0.8348
62.7234	13.3846	0.8285
62.8082	14.1026	0.8504
62.8930	10.9744	0.7502
62.9778	13.0256	0.8173
63.0626	11.7436	0.7760
63.1474	12.4615	0.7994
63.2322	12.2051	0.7911
63.3170	11.3846	0.7641
63.4018	12.8718	0.8125
63.4866	13.1795	0.8221
63.5714	13.9500	0.8352
63.6562	12.3902	0.7774
63.7410	12.1951	0.7713
63.8258	11.5122	0.7494
63.9106	11.7561	0.7573
63.9953	12.5854	0.7835
64.0801	12.1951	0.7713
64.1649	11.9512	0.7635
64.2497	11.9512	0.7635
64.3345	12.0000	0.7651
64.4193	13.4634	0.8104
64.5041	11.2195	0.7398
64.5889	12.7805	0.7896
64.6737	12.9268	0.7941
64.7585	12.6829	0.7866
64.8433	11.2093	0.7221
64.9281	11.7209	0.7383
65.0129	11.0233	0.7160
65.0977	11.5814	0.7339
65.1825	12.8837	0.7741
65.2673	11.4419	0.7295
65.3521	13.2093	0.7838
65.4369	12.4651	0.7614
65.5217	11.7209	0.7383
65.6065	12.3256	0.7572
65.6913	11.7209	0.7383
65.7761	12.7442	0.7699
65.8609	12.4186	0.7600
65.9457	12.4651	0.7614
66.0305	12.0444	0.7316
66.1153	11.6889	0.7208
66.2001	12.8000	0.7542
66.2849	13.5111	0.7749
66.3697	12.1778	0.7357
66.4545	12.5778	0.7477
66.5392	12.1778	0.7357
66.6240	11.9556	0.7289
66.7088	12.3111	0.7397
66.7936	11.2889	0.7083
66.8784	12.5333	0.7463
66.9632	12.1778	0.7357
67.0480	11.9556	0.7289
67.1328	10.2667	0.6755
67.2176	11.0435	0.6929
67.3024	12.8511	0.7395
67.3872	12.5957	0.7321
67.4720	11.4894	0.6992
67.5568	12.1277	0.7184
67.6416	13.0213	0.7444
67.7264	12.1277	0.7184
67.8112	12.7660	0.7370
67.8960	14.2979	0.7800
67.9808	12.3404	0.7247
68.0656	13.5319	0.7588
68.1504	12.3404	0.7247
68.2352	12.8085	0.7383
68.3200	12.2917	0.7156
68.4048	12.4583	0.7205
68.4896	13.5102	0.7426
68.5744	14.1224	0.7592
68.6592	13.3061	0.7370
68.7440	14.0408	0.7570
68.8288	15.0612	0.7841
68.9136	15.6327	0.7988
68.9984	15.7143	0.8009
69.0831	15.5918	0.7977
69.1679	17.0612	0.8345
69.2527	17.2245	0.8385
69.3375	19.5102	0.8924
69.4223	21.7143	0.9414
69.5071	24.9600	0.9992
69.5919	29.7200	1.0903
69.6767	38.6000	1.2426
69.7615	47.0196	1.3579
69.8463	53.8431	1.4531
69.9311	57.2549	1.4984
70.0159	61.5686	1.5539
70.1007	59.2157	1.5239
70.1855	54.7451	1.4652
70.2703	51.4902	1.4210
70.3551	48.8627	1.3843
70.4399	46.0784	1.3442
70.5247	44.5490	1.3217
70.6095	42.0392	1.2840
70.6943	35.7692	1.1729
70.7791	36.8077	1.1898
70.8639	35.4231	1.1672
70.9487	36.0755	1.1668
71.0335	32.7170	1.1111
71.1183	35.3208	1.1545
71.2031	34.8302	1.1464
71.2879	35.0566	1.1502
71.3727	35.2453	1.1533
71.4575	36.1887	1.1686
71.5423	38.1887	1.2005
71.6270	39.0943	1.2146
71.7118	39.0566	1.2140
71.7966	39.0566	1.2140
71.8814	40.9259	1.2312
71.9662	40.7037	1.2278
72.0510	43.4444	1.2685
72.1358	43.4074	1.2679
72.2206	45.6364	1.2882
72.3054	47.6727	1.3166
72.3902	48.1091	1.3227
72.4750	46.1091	1.2949
72.5598	44.2545	1.2686
72.6446	47.8909	1.3197
72.7294	44.0364	1.2654
72.8142	42.9455	1.2497
72.8990	43.2364	1.2539
72.9838	44.4727	1.2717
73.0686	51.6429	1.3581
73.1534	63.3214	1.5038
73.2382	65.1071	1.5249
73.3230	51.8214	1.3604
73.4078	43.9298	1.2415
73.4926	31.6842	1.0544
73.5774	23.2982	0.9041
73.6622	18.6316	0.8085
73.7470	17.8947	0.7924
73.8318	15.3333	0.7335
73.9166	14.0000	0.7009
74.0014	14.2807	0.7079
74.0862	13.7193	0.6938
74.1709	14.5517	0.7084
74.2557	13.1034	0.6722
74.3405	11.8966	0.6405
74.4253	13.1379	0.6731
74.5101	13.9310	0.6931
74.5949	12.9655	0.6686
74.6797	12.3390	0.6467
74.7645	12.1695	0.6423
74.8493	13.4576	0.6754
74.9341	12.5763	0.6529
75.0189	12.2034	0.6432
75.1037	12.1017	0.6405
75.1885	12.7458	0.6573
75.2733	12.0678	0.6396
75.3581	13.0333	0.6591
75.4429	11.3333	0.6146
75.5277	12.0333	0.6333
75.6125	11.3333	0.6146
75.6973	12.2000	0.6377
75.7821	12.0333	0.6333
75.8669	12.4590	0.6391
75.9517	11.6721	0.6186
76.0365	11.4426	0.6125
76.1213	12.2951	0.6349
76.2061	11.0820	0.6028
76.2909	10.5902	0.5893
76.3757	12.3607	0.6366
76.4605	11.3115	0.6090
76.5453	10.3871	0.5789
76.6301	12.7742	0.6419
76.7149	11.9032	0.6197
76.7996	10.8065	0.5904
76.8844	11.3548	0.6052
76.9692	10.1290	0.5716
77.0540	11.8710	0.6188
77.1388	11.1746	0.5956
77.2236	11.0476	0.5922
77.3084	11.7778	0.6115
77.3932	12.6032	0.6325
77.4780	12.4762	0.6293
77.5628	11.3016	0.5990
77.6476	11.8730	0.6139
77.7324	11.7188	0.6052
77.8172	11.7188	0.6052
77.9020	11.5000	0.5995
77.9868	11.5000	0.5995
78.0716	11.8125	0.6076
78.1564	12.3438	0.6211
78.2412	10.6563	0.5771
78.3260	11.8154	0.6030
78.4108	11.3231	0.5903
78.4956	11.3231	0.5903
78.5804	11.6000	0.5974
78.6652	10.3385	0.5640
78.7500	10.2462	0.5615
78.8348	10.2769	0.5623
78.9196	11.8182	0.5984
79.0044	11.7879	0.5977
79.0892	10.8788	0.5742
79.1740	11.3636	0.5868
79.2588	11.7273	0.5961
79.3435	11.1515	0.5813
79.4283	11.7273	0.5961
79.5131	11.9394	0.6015
79.5979	11.1940	0.5781
79.6827	11.1642	0.5773
79.7675	11.4627	0.5850
79.8523	10.2985	0.5545
79.9371	11.4328	0.5842
80.0219	11.0149	0.5734
80.1067	11.5294	0.5823
80.1915	11.1765	0.5733
80.2763	12.0882	0.5963
80.3611	11.3235	0.5771
80.4459	10.9706	0.5680
80.5307	11.7059	0.5868
80.6155	11.1765	0.5733
80.7003	11.2647	0.5756
80.7851	11.5072	0.5775
80.8699	11.5942	0.5797
80.9547	10.6087	0.5545
81.0395	11.4493	0.5761
81.1243	11.8551	0.5862
81.2091	10.6000	0.5503
81.2939	12.0286	0.5862
81.3787	11.8000	0.5806
81.4635	10.8000	0.5555
81.5483	11.3429	0.5693
81.6331	11.8571	0.5820
81.7179	11.3143	0.5686
81.8027	11.7714	0.5799
81.8874	11.2857	0.5678
81.9722	12.0571	0.5869
82.0570	13.6620	0.6204
82.1418	12.9577	0.6042
82.2266	13.7183	0.6216
82.3114	14.3380	0.6355
82.3962	14.6944	0.6389
82.4810	15.9722	0.6661
82.5658	20.7500	0.7592
82.6506	20.2500	0.7500
82.7354	22.1111	0.7837
82.8202	23.6389	0.8103
82.9050	25.4167	0.8402
82.9898	24.2500	0.8207
83.0746	23.2222	0.8032
83.1594	23.8056	0.8132
83.2442	22.1644	0.7793
83.3290	22.4658	0.7845
83.4138	21.6164	0.7696
83.4986	19.3151	0.7274
83.5834	18.6216	0.7094
83.6682	18.5135	0.7074
83.7530	17.5405	0.6885
83.8378	17.2432	0.6827
83.9226	17.7568	0.6928
84.0074	18.6486	0.7099
84.0922	17.6216	0.6901
84.1770	17.2973	0.6837
84.2618	18.1351	0.7001
84.3466	16.4865	0.6675
84.4313	16.2973	0.6637
84.5161	16.2667	0.6586
84.6009	16.5333	0.6640
84.6857	16.9867	0.6730
84.7705	16.2632	0.6542
84.8553	16.9737	0.6683
84.9401	17.6316	0.6812
85.0249	16.7895	0.6647
85.1097	18.5263	0.6982
85.1945	18.7368	0.7022
85.2793	18.5000	0.6977
85.3641	17.5263	0.6791
85.4489	18.4474	0.6967
85.5337	18.5000	0.6977
85.6185	19.0789	0.7086
85.7033	18.0519	0.6847
85.7881	20.6494	0.7324
85.8729	20.0779	0.7222
85.9577	18.6923	0.6923
86.0425	19.8205	0.7129
86.1273	19.9487	0.7152
86.2121	18.5128	0.6890
86.2969	18.7949	0.6942
86.3817	19.6667	0.7101
86.4665	18.6667	0.6918
86.5513	19.1282	0.7003
86.6361	19.0769	0.6994
86.7209	18.9744	0.6975
86.8057	18.8462	0.6952
86.8905	22.3291	0.7519
86.9752	24.5823	0.7889
87.0600	25.4000	0.7969
87.1448	20.3000	0.7124
87.2296	18.8000	0.6856
87.3144	19.3500	0.6955
87.3992	14.8500	0.6093
87.4840	12.3500	0.5557
87.5688	12.7750	0.5651
87.6536	11.5000	0.5362
87.7384	12.1000	0.5500
87.8232	11.1000	0.5268
87.9080	10.7750	0.5190
87.9928	11.6250	0.5391
88.0776	10.8500	0.5208
88.1624	11.4321	0.5313
88.2472	11.1220	0.5208
88.3320	10.9512	0.5168
88.4168	12.0488	0.5421
88.5016	9.5610	0.4829
88.5864	10.4390	0.5046
88.6712	11.3659	0.5265
88.7560	11.0976	0.5203
88.8408	10.1951	0.4987
88.9256	11.3171	0.5254
89.0104	11.8049	0.5366
89.0952	10.3659	0.5028
89.1800	10.5610	0.5075
89.2648	10.5610	0.5075
89.3496	10.3133	0.4985
89.4344	10.4762	0.4994
89.5192	11.0000	0.5118
89.6039	11.0000	0.5118
89.6887	10.7381	0.5056
89.7735	10.6667	0.5040
89.8583	10.1429	0.4914
89.9431	10.3810	0.4972
90.0279	10.0476	0.4891
90.1127	10.6190	0.5028
90.1975	11.3810	0.5206
90.2823	10.8571	0.5084
90.3671	10.5952	0.5023
90.4519	10.9524	0.5107
90.5367	11.2857	0.5184
90.6215	11.2791	0.5122
90.7063	10.6047	0.4966
90.7911	11.1163	0.5084
90.8759	10.6977	0.4988
90.9607	9.8837	0.4794
91.0455	9.9535	0.4811
91.1303	11.3488	0.5137
91.2151	10.7209	0.4993
91.2999	10.4419	0.4928
91.3847	10.7209	0.4993
91.4695	9.9070	0.4800
91.5543	10.4651	0.4933
91.6391	10.3023	0.4895
91.7239	10.6977	0.4988
91.8087	11.0682	0.5015
91.8935	10.6364	0.4917
91.9783	11.1136	0.5026
92.0631	10.4773	0.4880
92.1478	10.8864	0.4974
92.2326	10.7273	0.4938
92.3174	10.1591	0.4805
92.4022	11.5455	0.5122
92.4870	10.7727	0.4948
92.5718	10.8636	0.4969
92.6566	11.7727	0.5173
92.7414	10.7955	0.4953
92.8262	11.7273	0.5163
92.9110	11.2045	0.5046
92.9958	11.0112	0.4974
93.0806	11.1111	0.4969
93.1654	11.8000	0.5121
93.2502	11.3333	0.5018
93.3350	11.5333	0.5063
93.4198	11.4444	0.5043
93.5046	11.9556	0.5154
93.5894	11.8889	0.5140
93.6742	11.5778	0.5072
93.7590	11.9333	0.5150
93.8438	12.2222	0.5212
93.9286	12.4444	0.5259
94.0134	12.6444	0.5301
94.0982	12.3297	0.5206
94.1830	13.3187	0.5410
94.2678	13.3261	0.5382
94.3526	12.9348	0.5303
94.4374	14.0217	0.5521
94.5222	13.1304	0.5343
94.6070	14.6087	0.5635
94.6917	14.5000	0.5614
94.7765	16.7391	0.6032
94.8613	17.8043	0.6221
94.9461	18.8478	0.6401
95.0309	21.5435	0.6844
95.1157	23.0000	0.7071
95.2005	23.9130	0.7210
95.2853	23.5054	0.7110
95.3701	25.8495	0.7456
95.4549	24.7097	0.7290
95.5397	24.9787	0.7290
95.6245	24.5532	0.7228
95.7093	24.1489	0.7168
95.7941	23.8936	0.7130
95.8789	22.8723	0.6976
95.9637	22.3617	0.6898
96.0485	22.5106	0.6921
96.1333	20.8085	0.6654
96.2181	22.5957	0.6934
96.3029	20.1277	0.6544
96.3877	20.1489	0.6548
96.4725	20.2105	0.6523
96.5573	19.3684	0.6386
96.6421	19.4737	0.6403
96.7269	20.1042	0.6472
96.8117	17.9583	0.6117
96.8965	19.3125	0.6343
96.9813	18.2708	0.6170
97.0661	19.9792	0.6452
97.1509	18.8125	0.6260
97.2356	20.8958	0.6598
97.3204	20.1042	0.6472
97.4052	18.3958	0.6191
97.4900	20.0208	0.6458
97.5748	19.1875	0.6322
97.6596	19.6701	0.6368
97.7444	19.1959	0.6291
97.8292	18.9691	0.6254
97.9140	19.5052	0.6342
97.9988	21.4286	0.6613
98.0836	20.4286	0.6457
98.1684	20.8163	0.6518
98.2532	21.2245	0.6581
98.3380	21.7755	0.6666
98.4228	20.5510	0.6476
98.5076	21.4694	0.6619
98.5924	21.2653	0.6588
98.6772	21.2857	0.6591
98.7620	22.2857	0.6744
98.8468	22.8776	0.6833
98.9316	23.2857	0.6894
99.0164	22.8283	0.6791
99.1012	24.0000	0.6963
99.1860	23.5800	0.6867
99.2708	23.3600	0.6835
99.3556	23.2400	0.6818
99.4404	23.7600	0.6893
99.5252	23.4400	0.6847
99.6100	23.4600	0.6850
99.6948	23.5200	0.6859
99.7795	24.0200	0.6931
99.8643	23.2200	0.6815
99.9491	23.9400	0.6920
100.0339	22.9000	0.6768
100.1187	21.5400	0.6564
100.2035	21.9000	0.6618
100.2883	22.7800	0.6750
100.3731	24.7000	0.7029
100.4579	25.6471	0.7091
100.5427	28.9608	0.7536
100.6275	31.4314	0.7850
100.7123	28.9804	0.7538
100.7971	25.2549	0.7037
100.8819	23.7255	0.6821
100.9667	23.0784	0.6727
101.0515	20.1373	0.6284
101.1363	17.4510	0.5850
101.2211	15.4510	0.5504
101.3059	15.4510	0.5504
101.3907	12.8824	0.5026
101.4755	13.2941	0.5106
101.5603	12.9608	0.5041
101.6451	12.8824	0.5026
101.7299	11.6078	0.4771
101.8147	12.0000	0.4851
101.8995	11.8269	0.4769
101.9843	11.9231	0.4788
102.0691	11.8654	0.4777
102.1539	11.8846	0.4781
102.2387	11.6923	0.4742
102.3234	11.8269	0.4769
102.4082	11.5385	0.4711
102.4930	12.0385	0.4812
102.5778	10.9615	0.4591
102.6626	10.8654	0.4571
102.7474	11.7115	0.4746
102.8322	11.5385	0.4711
102.9170	11.8269	0.4769
103.0018	12.3462	0.4873
103.0866	11.8846	0.4781
103.1714	11.8269	0.4769
103.2562	10.9143	0.4560
103.3410	10.9623	0.4548
103.4258	11.8491	0.4728
103.5106	11.8868	0.4736
103.5954	11.5094	0.4660
103.6802	10.8491	0.4524
103.7650	11.5660	0.4671
103.8498	11.8868	0.4736
103.9346	11.7547	0.4709
104.0194	11.5660	0.4671
104.1042	11.3962	0.4637
104.1890	11.3019	0.4618
104.2738	11.9623	0.4751
104.3586	12.8491	0.4924
104.4434	11.3396	0.4626
104.5282	11.6415	0.4687
104.6130	11.7170	0.4702
104.6978	11.4953	0.4635
104.7826	10.8037	0.4494
104.8674	10.6852	0.4448
104.9521	11.2037	0.4555
105.0369	11.8704	0.4689
105.1217	12.2037	0.4754
105.2065	12.0370	0.4721
105.2913	12.4074	0.4793
105.3761	11.0926	0.4532
105.4609	11.8148	0.4678
105.5457	11.4815	0.4611
105.6305	11.6296	0.4641
105.7153	11.5741	0.4630
105.8001	11.6667	0.4648
105.8849	11.9074	0.4696
105.9697	12.4630	0.4804
106.0545	11.7222	0.4659
106.1393	12.8991	0.4865
106.2241	11.0459	0.4502
106.3089	11.7091	0.4614
106.3937	11.4182	0.4556
106.4785	12.0909	0.4689
106.5633	11.5455	0.4582
106.6481	11.7636	0.4625
106.7329	12.2000	0.4710
106.8177	11.6000	0.4592
106.9025	11.7455	0.4621
106.9873	11.0182	0.4476
107.0721	12.0364	0.4678
107.1569	12.0000	0.4671
107.2417	11.9091	0.4653
107.3265	12.8364	0.4831
107.4113	11.2545	0.4524
107.4960	12.3243	0.4712
107.5808	13.3333	0.4901
107.6656	13.7838	0.4984
107.7504	13.4821	0.4907
107.8352	13.6964	0.4945
107.9200	14.4643	0.5082
108.0048	13.9107	0.4984
108.0896	14.4464	0.5079
108.1744	14.7500	0.5132
108.2592	14.6964	0.5123
108.3440	15.6250	0.5282
108.4288	15.2143	0.5212
108.5136	15.1607	0.5203
108.5984	15.7321	0.5300
108.6832	14.2500	0.5044
108.7680	15.7431	0.5375
108.8528	13.6415	0.5073
108.9376	14.4660	0.5300
109.0224	14.0400	0.5299
109.1072	15.2990	0.5616
109.1920	13.9362	0.5445
109.2768	13.4565	0.5409
109.3616	14.2697	0.5663
109.4464	13.0930	0.5518
109.5312	13.7108	0.5748
109.6160	13.8750	0.5890
109.7008	13.6104	0.5946
109.7856	13.5135	0.6043
109.8704	13.8873	0.6255
109.9552	13.1765	0.6225
109.9834	12.8657	0.6197