File: XRD/SPS/WTaVTiCr_SPS1850C.xye
1.544427
20.0421	54.9589	0.8677
20.0982	54.9459	0.8617
20.1543	54.6533	0.8536
20.2104	54.1842	0.8444
20.2665	53.6364	0.8346
20.3226	53.9744	0.8319
20.3787	52.9873	0.8190
20.4348	53.1250	0.8149
20.4908	52.8025	0.8074
20.5469	53.3171	0.8064
20.6030	53.7470	0.8047
20.6591	52.9286	0.7938
20.7152	53.3765	0.7924
20.7713	51.8721	0.7766
20.8274	53.3218	0.7829
20.8835	53.7614	0.7816
20.9396	53.1348	0.7727
20.9957	53.3333	0.7698
21.0518	52.6484	0.7606
21.1079	52.9022	0.7583
21.1640	51.8710	0.7468
21.2201	51.8723	0.7429
21.2762	51.6316	0.7372
21.3323	52.4688	0.7393
21.3884	52.5258	0.7359
21.4445	50.3367	0.7167
21.5006	51.5859	0.7219
21.5567	51.2500	0.7159
21.6128	51.7921	0.7161
21.6689	51.2549	0.7089
21.7250	51.8835	0.7097
21.7811	51.2596	0.7021
21.8372	51.4190	0.6998
21.8933	53.0283	0.7073
21.9494	51.3178	0.6925
22.0055	49.8519	0.6794
22.0616	49.5413	0.6742
22.1177	51.3636	0.6833
22.1738	50.4144	0.6739
22.2299	49.5000	0.6648
22.2860	49.3186	0.6606
22.3421	50.3596	0.6646
22.3981	49.6087	0.6568
22.4542	49.3103	0.6520
22.5103	49.8803	0.6529
22.5664	49.6186	0.6485
22.6225	48.5126	0.6385
22.6786	49.1500	0.6400
22.7347	48.5372	0.6334
22.7908	49.1148	0.6345
22.8469	47.9431	0.6243
22.9030	47.7258	0.6204
22.9591	48.1680	0.6208
23.0152	48.9048	0.6230
23.0713	49.0787	0.6216
23.1274	47.9609	0.6121
23.1835	47.6744	0.6079
23.2396	48.1000	0.6083
23.2957	47.3130	0.6010
23.3518	48.0682	0.6035
23.4079	45.8421	0.5871
23.4640	47.3060	0.5942
23.5201	45.5704	0.5810
23.5762	47.0441	0.5881
23.6323	46.7883	0.5844
23.6884	47.0870	0.5841
23.7445	47.3813	0.5838
23.8006	45.7214	0.5715
23.8567	45.8865	0.5705
23.9128	46.2465	0.5707
23.9689	45.8671	0.5663
24.0250	45.9514	0.5649
24.0811	46.1389	0.5660
24.1372	46.5694	0.5687
24.1933	45.5000	0.5621
24.2494	46.7361	0.5697
24.3055	45.6806	0.5632
24.3615	46.6458	0.5691
24.4176	46.1458	0.5661
24.4737	45.8889	0.5645
24.5298	45.5972	0.5627
24.5859	45.7500	0.5637
24.6420	45.4306	0.5617
24.6981	45.7500	0.5637
24.7542	45.6597	0.5631
24.8103	45.9653	0.5650
24.8664	45.5833	0.5626
24.9225	44.7292	0.5573
24.9786	45.1389	0.5599
25.0347	46.1111	0.5659
25.0908	45.0833	0.5595
25.1469	45.3542	0.5612
25.2030	46.0694	0.5656
25.2591	45.9306	0.5648
25.3152	46.3403	0.5673
25.3713	45.1528	0.5600
25.4274	45.2986	0.5609
25.4835	44.5903	0.5565
25.5396	45.8333	0.5642
25.5957	46.2222	0.5666
25.6518	45.2431	0.5605
25.7079	44.8611	0.5582
25.7640	45.1736	0.5601
25.8201	45.8125	0.5640
25.8762	45.7083	0.5634
25.9323	44.5000	0.5559
25.9884	45.4375	0.5617
26.0445	45.9236	0.5647
26.1006	45.8194	0.5641
26.1567	44.6944	0.5571
26.2128	44.8958	0.5584
26.2688	46.0486	0.5655
26.3249	45.5278	0.5623
26.3810	45.5764	0.5626
26.4371	44.8125	0.5579
26.4932	45.0694	0.5594
26.5493	45.8611	0.5643
26.6054	44.6806	0.5570
26.6615	46.1528	0.5661
26.7176	44.3333	0.5549
26.7737	45.4792	0.5620
26.8298	44.4861	0.5558
26.8859	44.2500	0.5543
26.9420	45.4861	0.5620
26.9981	45.7361	0.5636
27.0542	45.8611	0.5643
27.1103	45.7986	0.5640
27.1664	45.2014	0.5603
27.2225	45.4028	0.5615
27.2786	44.8681	0.5582
27.3347	44.4444	0.5556
27.3908	44.8333	0.5580
27.4469	44.7986	0.5578
27.5030	44.2014	0.5540
27.5591	44.8819	0.5583
27.6152	44.2986	0.5546
27.6713	44.3819	0.5552
27.7274	44.0486	0.5531
27.7835	43.8958	0.5521
27.8396	45.3819	0.5614
27.8957	44.1319	0.5536
27.9518	42.6944	0.5445
28.0079	44.9583	0.5588
28.0640	44.7431	0.5574
28.1201	44.0833	0.5533
28.1761	44.7639	0.5575
28.2322	44.6944	0.5571
28.2883	44.0764	0.5533
28.3444	44.8889	0.5583
28.4005	44.8611	0.5582
28.4566	44.4931	0.5559
28.5127	43.5486	0.5499
28.5688	44.3819	0.5552
28.6249	43.5417	0.5499
28.6810	44.0069	0.5528
28.7371	43.9097	0.5522
28.7932	44.6458	0.5568
28.8493	44.9444	0.5587
28.9054	44.5694	0.5563
28.9615	44.4722	0.5557
29.0176	44.4375	0.5555
29.0737	43.7500	0.5512
29.1298	44.9097	0.5585
29.1859	45.0694	0.5594
29.2420	44.0625	0.5532
29.2981	44.1944	0.5540
29.3542	42.9306	0.5460
29.4103	43.9514	0.5525
29.4664	44.0903	0.5533
29.5225	45.3264	0.5610
29.5786	43.7431	0.5512
29.6347	44.0208	0.5529
29.6908	43.2222	0.5479
29.7469	44.0208	0.5529
29.8030	43.9306	0.5523
29.8591	43.9583	0.5525
29.9152	44.4028	0.5553
29.9713	44.1181	0.5535
30.0274	43.9583	0.5525
30.0834	43.9931	0.5527
30.1395	42.9444	0.5461
30.1956	43.3333	0.5486
30.2517	43.5694	0.5501
30.3078	42.8889	0.5457
30.3639	43.6389	0.5505
30.4200	43.6250	0.5504
30.4761	42.9653	0.5462
30.5322	43.7431	0.5512
30.5883	43.5347	0.5498
30.6444	43.4306	0.5492
30.7005	43.9097	0.5522
30.7566	43.1875	0.5476
30.8127	43.0000	0.5465
30.8688	43.4792	0.5495
30.9249	43.1042	0.5471
30.9810	43.8958	0.5521
31.0371	44.1736	0.5539
31.0932	43.1389	0.5473
31.1493	43.9792	0.5526
31.2054	43.9792	0.5526
31.2615	43.8264	0.5517
31.3176	43.1875	0.5476
31.3737	43.1319	0.5473
31.4298	42.8403	0.5454
31.4859	42.9583	0.5462
31.5420	42.5764	0.5438
31.5981	41.8611	0.5392
31.6542	43.0069	0.5465
31.7103	42.2986	0.5420
31.7664	43.6042	0.5503
31.8225	43.3333	0.5486
31.8786	43.4097	0.5491
31.9347	43.0208	0.5466
31.9907	42.6181	0.5440
32.0468	43.1458	0.5474
32.1029	43.2847	0.5483
32.1590	43.0208	0.5466
32.2151	42.5833	0.5438
32.2712	43.3056	0.5484
32.3273	42.7431	0.5448
32.3834	42.8681	0.5456
32.4395	42.1458	0.5410
32.4956	42.4236	0.5428
32.5517	42.7986	0.5452
32.6078	42.9236	0.5460
32.6639	43.3750	0.5488
32.7200	43.0764	0.5469
32.7761	41.6319	0.5377
32.8322	42.4861	0.5432
32.8883	42.4167	0.5427
32.9444	41.9653	0.5398
33.0005	42.9375	0.5461
33.0566	42.5694	0.5437
33.1127	42.1250	0.5409
33.1688	41.9236	0.5396
33.2249	42.3194	0.5421
33.2810	42.1597	0.5411
33.3371	43.0000	0.5465
33.3932	42.1389	0.5410
33.4493	42.4444	0.5429
33.5054	42.4861	0.5432
33.5615	42.4653	0.5430
33.6176	41.0972	0.5342
33.6737	42.7708	0.5450
33.7298	43.0000	0.5465
33.7859	42.1667	0.5411
33.8420	42.5556	0.5436
33.8980	41.8403	0.5390
33.9541	42.0139	0.5402
34.0102	42.2361	0.5416
34.0663	41.6389	0.5377
34.1224	41.8819	0.5393
34.1785	41.5486	0.5372
34.2346	41.8542	0.5391
34.2907	42.2431	0.5416
34.3468	42.3056	0.5420
34.4029	42.4444	0.5429
34.4590	41.8403	0.5390
34.5151	41.2153	0.5350
34.5712	41.9444	0.5397
34.6273	42.2361	0.5416
34.6834	42.8056	0.5452
34.7395	42.1528	0.5410
34.7956	41.8125	0.5389
34.8517	41.5000	0.5368
34.9078	41.6250	0.5376
34.9639	42.7500	0.5449
35.0200	42.6875	0.5445
35.0761	41.8125	0.5389
35.1322	41.0139	0.5337
35.1883	42.5417	0.5435
35.2444	42.0208	0.5402
35.3005	42.2847	0.5419
35.3566	40.9444	0.5332
35.4127	42.3819	0.5425
35.4688	42.6111	0.5440
35.5249	41.8125	0.5389
35.5810	43.3125	0.5484
35.6371	44.4931	0.5559
35.6932	44.5417	0.5562
35.7493	45.1319	0.5598
35.8053	45.5903	0.5627
35.8614	46.7222	0.5696
35.9175	48.8542	0.5825
35.9736	48.2014	0.5786
36.0297	51.8125	0.5998
36.0858	53.9306	0.6120
36.1419	56.8542	0.6283
36.1980	58.8750	0.6394
36.2541	61.1528	0.6517
36.3102	60.8472	0.6500
36.3663	58.3472	0.6365
36.4224	52.2917	0.6026
36.4785	49.1806	0.5844
36.5346	46.0903	0.5657
36.5907	44.2222	0.5542
36.6468	44.5347	0.5561
36.7029	42.8264	0.5453
36.7590	43.3056	0.5484
36.8151	41.8819	0.5393
36.8712	41.4583	0.5366
36.9273	42.5278	0.5434
36.9834	42.1875	0.5413
37.0395	41.4861	0.5367
37.0956	42.2222	0.5415
37.1517	40.9236	0.5331
37.2078	41.5000	0.5368
37.2639	41.8681	0.5392
37.3200	41.3750	0.5360
37.3761	40.9444	0.5332
37.4322	41.4375	0.5364
37.4883	40.1319	0.5279
37.5444	42.0069	0.5401
37.6005	41.2569	0.5353
37.6566	40.8542	0.5326
37.7126	41.0694	0.5340
37.7687	41.7431	0.5384
37.8248	41.6319	0.5377
37.8809	42.1458	0.5410
37.9370	41.4931	0.5368
37.9931	41.7639	0.5385
38.0492	41.3333	0.5358
38.1053	43.3958	0.5490
38.1614	41.6597	0.5379
38.2175	42.4583	0.5430
38.2736	42.4931	0.5432
38.3297	42.9653	0.5462
38.3858	42.5139	0.5434
38.4419	42.6667	0.5443
38.4980	42.3333	0.5422
38.5541	42.7917	0.5451
38.6102	42.8333	0.5454
38.6663	42.5069	0.5433
38.7224	43.1042	0.5471
38.7785	43.7917	0.5515
38.8346	42.7083	0.5446
38.8907	44.9375	0.5586
38.9468	45.3819	0.5614
39.0029	44.2569	0.5544
39.0590	44.6528	0.5569
39.1151	47.6736	0.5754
39.1712	48.1875	0.5785
39.2273	49.2639	0.5849
39.2834	48.9028	0.5828
39.3395	50.7500	0.5937
39.3956	53.0694	0.6071
39.4517	53.6319	0.6103
39.5078	55.5903	0.6213
39.5639	57.4375	0.6316
39.6199	59.3333	0.6419
39.6760	62.4931	0.6588
39.7321	65.3333	0.6736
39.7882	69.2083	0.6933
39.8443	74.2083	0.7179
39.9004	81.1944	0.7509
39.9565	86.9722	0.7772
40.0126	99.2292	0.8301
40.0687	111.7014	0.8807
40.1248	128.9306	0.9462
40.1809	151.5417	1.0259
40.2370	183.1111	1.1277
40.2931	219.3611	1.2342
40.3492	262.7917	1.3509
40.4053	316.0000	1.4814
40.4614	369.9792	1.6029
40.5175	429.2500	1.7265
40.5736	491.1875	1.8469
40.6297	537.6597	1.9323
40.6858	564.4653	1.9799
40.7419	568.5972	1.9871
40.7980	541.8542	1.9398
40.8541	493.0833	1.8505
40.9102	428.3472	1.7247
40.9663	365.6944	1.5936
41.0224	311.9861	1.4719
41.0785	253.1042	1.3258
41.1346	211.3472	1.2115
41.1907	177.0000	1.1087
41.2468	148.4444	1.0153
41.3029	128.0625	0.9430
41.3590	113.7153	0.8886
41.4151	97.2708	0.8219
41.4712	87.7222	0.7805
41.5273	79.9097	0.7449
41.5833	74.5556	0.7195
41.6394	68.9722	0.6921
41.6955	67.0833	0.6825
41.7516	65.3681	0.6738
41.8077	63.2361	0.6627
41.8638	63.3958	0.6635
41.9199	65.7431	0.6757
41.9760	67.5903	0.6851
42.0321	72.2847	0.7085
42.0882	76.1597	0.7272
42.1443	78.5139	0.7384
42.2004	77.1042	0.7317
42.2565	72.3958	0.7090
42.3126	67.7222	0.6858
42.3687	59.8681	0.6448
42.4248	55.5694	0.6212
42.4809	52.6597	0.6047
42.5370	51.6250	0.5988
42.5931	50.0833	0.5897
42.6492	47.7153	0.5756
42.7053	46.0347	0.5654
42.7614	44.5556	0.5562
42.8175	44.2778	0.5545
42.8736	44.3542	0.5550
42.9297	42.3889	0.5426
42.9858	41.8958	0.5394
43.0419	41.7708	0.5386
43.0980	42.5556	0.5436
43.1541	40.0417	0.5273
43.2102	40.5069	0.5304
43.2663	41.2569	0.5353
43.3224	39.4861	0.5236
43.3785	40.9583	0.5333
43.4346	39.8403	0.5260
43.4906	39.5208	0.5239
43.5467	39.6806	0.5249
43.6028	38.5625	0.5175
43.6589	39.4444	0.5234
43.7150	39.3125	0.5225
43.7711	39.0069	0.5205
43.8272	38.5833	0.5176
43.8833	39.0764	0.5209
43.9394	38.4028	0.5164
43.9955	37.9792	0.5136
44.0516	38.0069	0.5137
44.1077	38.0625	0.5141
44.1638	37.7292	0.5119
44.2199	38.3194	0.5159
44.2760	38.8611	0.5195
44.3321	38.0417	0.5140
44.3882	39.0764	0.5209
44.4443	38.3056	0.5158
44.5004	37.1389	0.5078
44.5565	36.8958	0.5062
44.6126	38.0069	0.5137
44.6687	37.6250	0.5112
44.7248	37.0278	0.5071
44.7809	36.2639	0.5018
44.8370	36.5486	0.5038
44.8931	36.2917	0.5020
44.9492	36.4792	0.5033
45.0053	36.9931	0.5068
45.0614	35.9792	0.4999
45.1175	36.6111	0.5042
45.1736	36.4653	0.5032
45.2297	36.4514	0.5031
45.2858	36.8542	0.5059
45.3419	35.5139	0.4966
45.3979	36.0972	0.5007
45.4540	36.8194	0.5057
45.5101	35.7917	0.4986
45.5662	35.1667	0.4942
45.6223	36.0069	0.5000
45.6784	34.5694	0.4900
45.7345	35.7153	0.4980
45.7906	35.8472	0.4989
45.8467	36.2153	0.5015
45.9028	34.8264	0.4918
45.9589	36.1944	0.5013
46.0150	35.2569	0.4948
46.0711	35.0556	0.4934
46.1272	35.3333	0.4953
46.1833	35.0278	0.4932
46.2394	35.8056	0.4986
46.2955	35.1597	0.4941
46.3516	35.4514	0.4962
46.4077	34.6042	0.4902
46.4638	35.2222	0.4946
46.5199	35.1111	0.4938
46.5760	33.7986	0.4845
46.6321	34.8889	0.4922
46.6882	34.4931	0.4894
46.7443	35.5833	0.4971
46.8004	34.2639	0.4878
46.8565	34.2847	0.4879
46.9126	34.5000	0.4895
46.9687	34.4722	0.4893
47.0248	34.5833	0.4901
47.0809	34.6319	0.4904
47.1370	35.0694	0.4935
47.1931	34.6667	0.4907
47.2492	34.6111	0.4903
47.3052	34.6458	0.4905
47.3613	34.4931	0.4894
47.4174	33.9306	0.4854
47.4735	34.7222	0.4910
47.5296	32.9931	0.4787
47.5857	34.3611	0.4885
47.6418	33.5972	0.4830
47.6979	33.5833	0.4829
47.7540	34.5278	0.4897
47.8101	33.8056	0.4845
47.8662	33.7917	0.4844
47.9223	34.2569	0.4877
47.9784	33.2500	0.4805
48.0345	34.6319	0.4904
48.0906	34.2778	0.4879
48.1467	34.3681	0.4885
48.2028	34.0903	0.4866
48.2589	34.5903	0.4901
48.3150	34.0139	0.4860
48.3711	32.5069	0.4751
48.4272	33.1597	0.4799
48.4833	34.4306	0.4890
48.5394	33.9375	0.4855
48.5955	32.2500	0.4732
48.6516	33.2431	0.4805
48.7077	34.1181	0.4868
48.7638	33.7847	0.4844
48.8199	34.2153	0.4874
48.8760	33.5417	0.4826
48.9321	33.8750	0.4850
48.9882	32.6389	0.4761
49.0443	32.9306	0.4782
49.1004	33.5486	0.4827
49.1565	33.9028	0.4852
49.2125	33.7361	0.4840
49.2686	33.1597	0.4799
49.3247	33.4097	0.4817
49.3808	33.1528	0.4798
49.4369	33.6528	0.4834
49.4930	33.8194	0.4846
49.5491	33.5486	0.4827
49.6052	33.4444	0.4819
49.6613	33.9306	0.4854
49.7174	33.3681	0.4814
49.7735	33.5208	0.4825
49.8296	32.9653	0.4785
49.8857	33.8611	0.4849
49.9418	33.5625	0.4828
49.9979	32.0486	0.4718
50.0540	33.0139	0.4788
50.1101	32.5694	0.4756
50.1662	33.0486	0.4791
50.2223	33.1111	0.4795
50.2784	33.3611	0.4813
50.3345	33.1181	0.4796
50.3906	31.9306	0.4709
50.4467	32.9722	0.4785
50.5028	32.1319	0.4724
50.5589	33.1042	0.4795
50.6150	32.2153	0.4730
50.6711	33.7153	0.4839
50.7272	32.9375	0.4783
50.7833	33.3542	0.4813
50.8394	32.9514	0.4784
50.8955	32.7292	0.4767
50.9516	32.6875	0.4764
51.0077	32.7986	0.4773
51.0638	33.1111	0.4795
51.1198	33.4375	0.4819
51.1759	31.7500	0.4696
51.2320	32.6389	0.4761
51.2881	33.6736	0.4836
51.3442	32.1667	0.4726
51.4003	32.8611	0.4777
51.4564	32.2083	0.4729
51.5125	33.3819	0.4815
51.5686	32.2014	0.4729
51.6247	33.0208	0.4789
51.6808	31.5764	0.4683
51.7369	34.1528	0.4870
51.7930	32.6875	0.4764
51.8491	32.8056	0.4773
51.9052	34.0139	0.4860
51.9613	33.2986	0.4809
52.0174	32.4792	0.4749
52.0735	33.0000	0.4787
52.1296	32.2708	0.4734
52.1857	33.1389	0.4797
52.2418	32.8333	0.4775
52.2979	32.4931	0.4750
52.3540	32.7500	0.4769
52.4101	33.7361	0.4840
52.4662	33.2361	0.4804
52.5223	32.1667	0.4726
52.5784	31.7431	0.4695
52.6345	32.6181	0.4759
52.6906	33.4514	0.4820
52.7467	33.0069	0.4788
52.8028	33.0069	0.4788
52.8589	32.7569	0.4769
52.9150	33.3264	0.4811
52.9711	32.7292	0.4767
53.0271	32.2569	0.4733
53.0832	32.7083	0.4766
53.1393	32.0278	0.4716
53.1954	32.0208	0.4716
53.2515	32.0972	0.4721
53.3076	32.8611	0.4777
53.3637	32.9028	0.4780
53.4198	33.5556	0.4827
53.4759	33.0347	0.4790
53.5320	32.8333	0.4775
53.5881	32.5000	0.4751
53.6442	32.0764	0.4720
53.7003	32.4028	0.4744
53.7564	32.6667	0.4763
53.8125	33.2292	0.4804
53.8686	32.5278	0.4753
53.9247	32.0417	0.4717
53.9808	32.5694	0.4756
54.0369	32.9722	0.4785
54.0930	32.6250	0.4760
54.1491	32.4931	0.4750
54.2052	33.2153	0.4803
54.2613	32.7361	0.4768
54.3174	32.5486	0.4754
54.3735	32.6806	0.4764
54.4296	32.6389	0.4761
54.4857	32.9444	0.4783
54.5418	32.6181	0.4759
54.5979	32.8125	0.4774
54.6540	32.8333	0.4775
54.7101	33.1458	0.4798
54.7662	32.3611	0.4741
54.8223	33.1181	0.4796
54.8784	33.0417	0.4790
54.9344	31.8056	0.4700
54.9905	32.8611	0.4777
55.0466	32.2361	0.4731
55.1027	32.4792	0.4749
55.1588	32.5764	0.4756
55.2149	32.3889	0.4743
55.2710	33.9514	0.4856
55.3271	32.3472	0.4740
55.3832	33.1181	0.4796
55.4393	32.5903	0.4757
55.4954	32.9028	0.4780
55.5515	33.3264	0.4811
55.6076	33.0069	0.4788
55.6637	33.1944	0.4801
55.7198	33.4653	0.4821
55.7759	33.6875	0.4837
55.8320	33.2500	0.4805
55.8881	33.5417	0.4826
55.9442	33.2778	0.4807
56.0003	33.5694	0.4828
56.0564	33.2500	0.4805
56.1125	33.8819	0.4851
56.1686	34.0694	0.4864
56.2247	33.7778	0.4843
56.2808	33.9097	0.4853
56.3369	33.8750	0.4850
56.3930	34.0556	0.4863
56.4491	34.7778	0.4914
56.5052	34.7986	0.4916
56.5613	35.1042	0.4937
56.6174	34.6111	0.4903
56.6735	34.9444	0.4926
56.7296	35.8264	0.4988
56.7857	35.1042	0.4937
56.8418	35.2292	0.4946
56.8978	36.1319	0.5009
56.9539	36.4653	0.5032
57.0100	36.2431	0.5017
57.0661	36.7153	0.5049
57.1222	37.0625	0.5073
57.1783	38.2917	0.5157
57.2344	37.0486	0.5072
57.2905	38.1111	0.5145
57.3466	38.7361	0.5187
57.4027	39.0903	0.5210
57.4588	39.2083	0.5218
57.5149	41.4861	0.5367
57.5710	41.5486	0.5372
57.6271	42.8194	0.5453
57.6832	42.7222	0.5447
57.7393	45.9375	0.5648
57.7954	46.6250	0.5690
57.8515	48.9792	0.5832
57.9076	52.7153	0.6050
57.9637	54.4583	0.6150
58.0198	58.1319	0.6354
58.0759	63.9583	0.6664
58.1320	68.4861	0.6896
58.1881	73.9097	0.7164
58.2442	82.3750	0.7563
58.3003	91.1667	0.7957
58.3564	99.1736	0.8299
58.4125	112.7917	0.8850
58.4686	122.7500	0.9233
58.5247	138.8403	0.9819
58.5808	154.2986	1.0351
58.6369	170.0694	1.0868
58.6930	181.6875	1.1233
58.7491	197.4653	1.1710
58.8051	207.9514	1.2017
58.8612	216.8472	1.2271
58.9173	218.3264	1.2313
58.9734	215.7014	1.2239
59.0295	210.1944	1.2082
59.0856	201.6944	1.1835
59.1417	188.3889	1.1438
59.1978	173.5208	1.0977
59.2539	156.8889	1.0438
59.3100	137.3403	0.9766
59.3661	122.9375	0.9240
59.4222	110.5069	0.8760
59.4783	99.1736	0.8299
59.5344	87.9097	0.7813
59.5905	80.2014	0.7463
59.6466	71.4167	0.7042
59.7027	64.7222	0.6704
59.7588	61.1458	0.6516
59.8149	56.8403	0.6283
59.8710	53.3125	0.6085
59.9271	51.1111	0.5958
59.9832	48.6319	0.5811
60.0393	45.4444	0.5618
60.0954	44.7639	0.5575
60.1515	43.6319	0.5505
60.2076	42.8264	0.5453
60.2637	41.4861	0.5367
60.3198	42.0486	0.5404
60.3759	39.9167	0.5265
60.4320	41.0417	0.5339
60.4881	40.5764	0.5308
60.5442	40.1875	0.5283
60.6003	40.3958	0.5296
60.6564	41.0556	0.5340
60.7124	42.0764	0.5406
60.7685	42.0625	0.5405
60.8246	45.6181	0.5628
60.8807	45.5764	0.5626
60.9368	47.1458	0.5722
60.9929	47.3472	0.5734
61.0490	49.1250	0.5841
61.1051	47.7431	0.5758
61.1612	48.1806	0.5784
61.2173	45.6458	0.5630
61.2734	43.0556	0.5468
61.3295	40.8333	0.5325
61.3856	38.0625	0.5141
61.4417	37.5069	0.5104
61.4978	36.4097	0.5028
61.5539	36.3611	0.5025
61.6100	35.4306	0.4960
61.6661	35.1042	0.4937
61.7222	34.5486	0.4898
61.7783	32.9722	0.4785
61.8344	34.2847	0.4879
61.8905	34.2569	0.4877
61.9466	34.0139	0.4860
62.0027	32.5139	0.4752
62.0588	32.9931	0.4787
62.1149	32.9931	0.4787
62.1710	33.0556	0.4791
62.2271	32.9167	0.4781
62.2832	33.8542	0.4849
62.3393	33.5833	0.4829
62.3954	33.1389	0.4797
62.4515	32.7222	0.4767
62.5076	33.2083	0.4802
62.5637	33.0069	0.4788
62.6197	33.1319	0.4797
62.6758	33.5556	0.4827
62.7319	32.8542	0.4777
62.7880	32.2708	0.4734
62.8441	33.7222	0.4839
62.9002	32.4306	0.4746
62.9563	33.1389	0.4797
63.0124	32.1667	0.4726
63.0685	33.4167	0.4817
63.1246	33.1875	0.4801
63.1807	33.1042	0.4795
63.2368	33.0486	0.4791
63.2929	32.4931	0.4750
63.3490	32.4722	0.4749
63.4051	32.3333	0.4739
63.4612	32.7778	0.4771
63.5173	32.3403	0.4739
63.5734	32.9306	0.4782
63.6295	32.1736	0.4727
63.6856	32.2431	0.4732
63.7417	32.2292	0.4731
63.7978	33.3681	0.4814
63.8539	32.7083	0.4766
63.9100	32.0972	0.4721
63.9661	32.9792	0.4786
64.0222	32.7500	0.4769
64.0783	32.9653	0.4785
64.1344	33.5000	0.4823
64.1905	32.5556	0.4755
64.2466	33.0694	0.4792
64.3027	33.3472	0.4812
64.3588	34.0208	0.4861
64.4149	33.9167	0.4853
64.4710	34.0903	0.4866
64.5270	33.0139	0.4788
64.5831	33.5000	0.4823
64.6392	35.3125	0.4952
64.6953	33.0000	0.4787
64.7514	33.5486	0.4827
64.8075	32.5139	0.4752
64.8636	33.1736	0.4800
64.9197	33.1319	0.4797
64.9758	32.8958	0.4780
65.0319	33.5556	0.4827
65.0880	33.1528	0.4798
65.1441	32.5903	0.4757
65.2002	32.7917	0.4772
65.2563	32.7708	0.4770
65.3124	33.0694	0.4792
65.3685	33.0139	0.4788
65.4246	33.0208	0.4789
65.4807	33.4444	0.4819
65.5368	32.4583	0.4748
65.5929	32.9375	0.4783
65.6490	33.1528	0.4798
65.7051	33.3958	0.4816
65.7612	33.0139	0.4788
65.8173	33.2986	0.4809
65.8734	32.0556	0.4718
65.9295	33.1042	0.4795
65.9856	32.8264	0.4775
66.0417	33.7222	0.4839
66.0978	32.7917	0.4772
66.1539	32.8542	0.4777
66.2100	32.3264	0.4738
66.2661	33.3819	0.4815
66.3222	33.8472	0.4848
66.3783	32.4931	0.4750
66.4343	32.4792	0.4749
66.4904	33.2083	0.4802
66.5465	33.0764	0.4793
66.6026	32.9306	0.4782
66.6587	32.4722	0.4749
66.7148	32.8889	0.4779
66.7709	33.0347	0.4790
66.8270	31.6667	0.4689
66.8831	32.5903	0.4757
66.9392	32.6319	0.4760
66.9953	32.8472	0.4776
67.0514	31.8958	0.4706
67.1075	32.9236	0.4782
67.1636	33.6736	0.4836
67.2197	31.9931	0.4714
67.2758	33.1458	0.4798
67.3319	32.5694	0.4756
67.3880	32.6042	0.4758
67.4441	32.4722	0.4749
67.5002	32.3889	0.4743
67.5563	33.1111	0.4795
67.6124	32.6042	0.4758
67.6685	32.3889	0.4743
67.7246	33.4931	0.4823
67.7807	33.1528	0.4798
67.8368	32.3819	0.4742
67.8929	32.2917	0.4735
67.9490	32.8194	0.4774
68.0051	32.9028	0.4780
68.0612	32.2708	0.4734
68.1173	33.1042	0.4795
68.1734	33.3611	0.4813
68.2295	33.1597	0.4799
68.2856	33.4097	0.4817
68.3416	32.6389	0.4761
68.3977	34.2014	0.4873
68.4538	33.8958	0.4852
68.5099	32.4861	0.4750
68.5660	34.0625	0.4864
68.6221	34.2986	0.4880
68.6782	34.1181	0.4868
68.7343	34.4097	0.4888
68.7904	34.5069	0.4895
68.8465	35.1736	0.4942
68.9026	35.5972	0.4972
68.9587	35.7222	0.4981
69.0148	35.0625	0.4934
69.0709	35.4097	0.4959
69.1270	33.8750	0.4850
69.1831	34.2847	0.4879
69.2392	35.6806	0.4978
69.2953	34.6250	0.4904
69.3514	34.3542	0.4884
69.4075	34.2153	0.4874
69.4636	34.6042	0.4902
69.5197	33.5903	0.4830
69.5758	34.4931	0.4894
69.6319	34.7639	0.4913
69.6880	34.7500	0.4912
69.7441	34.3542	0.4884
69.8002	33.2847	0.4808
69.8563	33.1319	0.4797
69.9124	34.0972	0.4866
69.9685	34.1250	0.4868
70.0246	34.0972	0.4866
70.0807	33.2361	0.4804
70.1368	33.5694	0.4828
70.1929	33.6111	0.4831
70.2489	33.8264	0.4847
70.3050	33.8681	0.4850
70.3611	33.4306	0.4818
70.4172	34.3611	0.4885
70.4733	34.4931	0.4894
70.5294	34.5417	0.4898
70.5855	34.0486	0.4863
70.6416	34.2431	0.4876
70.6977	33.8264	0.4847
70.7538	35.0486	0.4933
70.8099	35.4306	0.4960
70.8660	34.8472	0.4919
70.9221	34.6667	0.4907
70.9782	34.7292	0.4911
71.0343	34.2708	0.4878
71.0904	36.0208	0.5001
71.1465	35.3750	0.4956
71.2026	36.2431	0.5017
71.2587	34.9097	0.4924
71.3148	37.0000	0.5069
71.3709	36.9028	0.5062
71.4270	37.0903	0.5075
71.4831	37.0347	0.5071
71.5392	37.2986	0.5089
71.5953	36.9792	0.5068
71.6514	38.3611	0.5161
71.7075	38.3611	0.5161
71.7636	37.8403	0.5126
71.8197	38.6250	0.5179
71.8758	39.6597	0.5248
71.9319	39.8264	0.5259
71.9880	40.1528	0.5281
72.0441	40.4514	0.5300
72.1002	40.8403	0.5326
72.1562	40.9028	0.5330
72.2123	41.9306	0.5396
72.2684	41.4236	0.5363
72.3245	43.2569	0.5481
72.3806	44.8194	0.5579
72.4367	44.7917	0.5577
72.4928	46.1667	0.5662
72.5489	47.5694	0.5748
72.6050	50.4792	0.5921
72.6611	52.0139	0.6010
72.7172	53.6319	0.6103
72.7733	57.5278	0.6321
72.8294	60.1111	0.6461
72.8855	65.3403	0.6736
72.9416	66.7708	0.6809
72.9977	70.7778	0.7011
73.0538	76.7292	0.7300
73.1099	83.9028	0.7633
73.1660	88.2847	0.7830
73.2221	94.6319	0.8107
73.2782	98.0833	0.8253
73.3343	105.0069	0.8539
73.3904	113.1250	0.8863
73.4465	122.2847	0.9215
73.5026	129.8264	0.9495
73.5587	140.4722	0.9877
73.6148	150.1944	1.0213
73.6709	164.9097	1.0701
73.7270	173.8542	1.0988
73.7831	184.0069	1.1304
73.8392	195.9444	1.1665
73.8953	204.4861	1.1917
73.9514	211.0486	1.2106
74.0075	216.1875	1.2253
74.0636	216.9861	1.2275
74.1196	218.5208	1.2319
74.1757	212.3958	1.2145
74.2318	203.4931	1.1888
74.2879	193.1250	1.1581
74.3440	183.8472	1.1299
74.4001	172.3819	1.0941
74.4562	161.6597	1.0595
74.5123	148.4861	1.0155
74.5684	137.1944	0.9761
74.6245	123.9722	0.9279
74.6806	112.5903	0.8842
74.7367	102.4306	0.8434
74.7928	94.3264	0.8093
74.8489	86.4306	0.7747
74.9050	78.2222	0.7370
74.9611	73.5694	0.7148
75.0172	67.9236	0.6868
75.0733	63.0278	0.6616
75.1294	59.1389	0.6408
75.1855	57.7014	0.6330
75.2416	54.1250	0.6131
75.2977	51.0139	0.5952
75.3538	50.8958	0.5945
75.4099	49.2083	0.5846
75.4660	46.9861	0.5712
75.5221	46.2778	0.5669
75.5782	45.4167	0.5616
75.6343	43.1528	0.5474
75.6904	42.2292	0.5415
75.7465	41.9722	0.5399
75.8026	42.1736	0.5412
75.8587	41.2986	0.5355
75.9148	40.6667	0.5314
75.9709	39.9375	0.5266
76.0269	39.7292	0.5253
76.0830	39.8403	0.5260
76.1391	38.6250	0.5179
76.1952	39.5833	0.5243
76.2513	38.9514	0.5201
76.3074	38.4097	0.5165
76.3635	37.1528	0.5079
76.4196	37.6597	0.5114
76.4757	38.3056	0.5158
76.5318	38.7778	0.5189
76.5879	37.9792	0.5136
76.6440	38.3264	0.5159
76.7001	38.6806	0.5183
76.7562	38.3194	0.5159
76.8123	38.4931	0.5170
76.8684	38.6806	0.5183
76.9245	38.7986	0.5191
76.9806	38.6250	0.5179
77.0367	37.2292	0.5085
77.0928	38.4375	0.5166
77.1489	38.3194	0.5159
77.2050	37.0694	0.5074
77.2611	35.7708	0.4984
77.3172	35.2431	0.4947
77.3733	35.6319	0.4974
77.4294	35.3681	0.4956
77.4855	34.6597	0.4906
77.5416	34.4722	0.4893
77.5977	34.2708	0.4878
77.6538	33.7361	0.4840
77.7099	33.2917	0.4808
77.7660	33.8194	0.4846
77.8221	33.0139	0.4788
77.8782	33.7847	0.4844
77.9342	34.2222	0.4875
77.9903	33.1042	0.4795
78.0464	33.4375	0.4819
78.1025	33.5417	0.4826
78.1586	32.9097	0.4781
78.2147	33.2222	0.4803
78.2708	33.7639	0.4842
78.3269	33.2708	0.4807
78.3830	32.8889	0.4779
78.4391	32.7986	0.4773
78.4952	33.4861	0.4822
78.5513	32.1389	0.4724
78.6074	33.3056	0.4809
78.6635	32.7778	0.4771
78.7196	32.5556	0.4755
78.7757	33.7639	0.4842
78.8318	32.8958	0.4780
78.8879	33.0903	0.4794
78.9440	32.2222	0.4730
79.0001	32.8958	0.4780
79.0562	34.2014	0.4873
79.1123	32.2500	0.4732
79.1684	32.0278	0.4716
79.2245	32.6250	0.4760
79.2806	32.9306	0.4782
79.3367	32.5347	0.4753
79.3928	32.3264	0.4738
79.4489	32.2708	0.4734
79.5050	32.7292	0.4767
79.5611	32.6458	0.4761
79.6172	32.6389	0.4761
79.6733	33.0347	0.4790
79.7294	31.5278	0.4679
79.7855	33.2153	0.4803
79.8415	32.5556	0.4755
79.8976	33.6944	0.4837
79.9537	32.4444	0.4747
80.0098	33.1250	0.4796
80.0659	32.9167	0.4781
80.1220	32.6597	0.4762
80.1781	33.2639	0.4806
80.2342	33.1458	0.4798
80.2903	33.3542	0.4813
80.3464	33.0625	0.4792
80.4025	32.8125	0.4774
80.4586	32.5556	0.4755
80.5147	32.9306	0.4782
80.5708	32.4028	0.4744
80.6269	32.3958	0.4743
80.6830	32.5556	0.4755
80.7391	32.7847	0.4771
80.7952	33.2569	0.4806
80.8513	33.0833	0.4793
80.9074	32.3750	0.4742
80.9635	33.1667	0.4799
81.0196	32.1597	0.4726
81.0757	32.4306	0.4746
81.1318	31.8472	0.4703
81.1879	31.5000	0.4677
81.2440	32.7847	0.4771
81.3001	32.7292	0.4767
81.3562	32.5278	0.4753
81.4123	32.3403	0.4739
81.4684	32.4861	0.4750
81.5245	32.4306	0.4746
81.5806	32.5903	0.4757
81.6367	32.0972	0.4721
81.6928	32.4444	0.4747
81.7488	32.9722	0.4785
81.8049	31.2431	0.4658
81.8610	32.5764	0.4756
81.9171	32.2847	0.4735
81.9732	31.7431	0.4695
82.0293	32.6458	0.4761
82.0854	32.0833	0.4720
82.1415	32.3333	0.4739
82.1976	32.3889	0.4743
82.2537	31.4653	0.4674
82.3098	32.2014	0.4729
82.3659	32.1597	0.4726
82.4220	32.1181	0.4723
82.4781	32.6667	0.4763
82.5342	31.9444	0.4710
82.5903	32.8056	0.4773
82.6464	32.5139	0.4752
82.7025	32.0208	0.4716
82.7586	31.3889	0.4669
82.8147	32.8958	0.4780
82.8708	32.1389	0.4724
82.9269	32.1875	0.4728
82.9830	32.2639	0.4733
83.0391	32.0903	0.4721
83.0952	31.8611	0.4704
83.1513	32.3611	0.4741
83.2074	32.0903	0.4721
83.2635	32.0208	0.4716
83.3196	32.1458	0.4725
83.3757	31.4653	0.4674
83.4318	32.2708	0.4734
83.4879	32.7500	0.4769
83.5440	32.9861	0.4786
83.6001	32.6458	0.4761
83.6561	32.3472	0.4740
83.7122	32.6944	0.4765
83.7683	32.6736	0.4763
83.8244	32.3889	0.4743
83.8805	32.2222	0.4730
83.9366	32.7014	0.4765
83.9927	32.5556	0.4755
84.0488	32.4931	0.4750
84.1049	32.2569	0.4733
84.1610	33.1597	0.4799
84.2171	32.5347	0.4753
84.2732	32.8403	0.4776
84.3293	33.2361	0.4804
84.3854	32.8750	0.4778
84.4415	32.6319	0.4760
84.4976	33.1875	0.4801
84.5537	32.1250	0.4723
84.6098	32.6806	0.4764
84.6659	32.8403	0.4776
84.7220	33.2708	0.4807
84.7781	32.6111	0.4759
84.8342	33.4514	0.4820
84.8903	33.9028	0.4852
84.9464	33.5764	0.4829
85.0025	33.9167	0.4853
85.0586	32.2708	0.4734
85.1147	33.3750	0.4814
85.1708	33.3056	0.4809
85.2269	33.0556	0.4791
85.2830	33.3889	0.4815
85.3391	33.8472	0.4848
85.3952	33.1875	0.4801
85.4513	33.9375	0.4855
85.5074	33.6250	0.4832
85.5634	34.5764	0.4900
85.6195	34.1181	0.4868
85.6756	34.6181	0.4903
85.7317	33.8750	0.4850
85.7878	34.4444	0.4891
85.8439	35.2431	0.4947
85.9000	34.4653	0.4892
85.9561	34.5000	0.4895
86.0122	34.4931	0.4894
86.0683	35.0278	0.4932
86.1244	35.0000	0.4930
86.1805	35.5833	0.4971
86.2366	35.2569	0.4948
86.2927	34.9653	0.4928
86.3488	36.0694	0.5005
86.4049	37.0764	0.5074
86.4610	36.9375	0.5065
86.5171	37.8681	0.5128
86.5732	37.9375	0.5133
86.6293	38.8681	0.5195
86.6854	39.8611	0.5261
86.7415	41.7708	0.5386
86.7976	42.1736	0.5412
86.8537	42.2500	0.5417
86.9098	43.5694	0.5501
86.9659	44.2500	0.5543
87.0220	45.4583	0.5619
87.0781	47.1181	0.5720
87.1342	47.3819	0.5736
87.1903	50.2569	0.5908
87.2464	50.3056	0.5911
87.3025	53.4097	0.6090
87.3586	55.0625	0.6184
87.4147	56.1389	0.6244
87.4707	59.1597	0.6410
87.5268	61.6667	0.6544
87.5829	64.4722	0.6691
87.6390	65.8194	0.6761
87.6951	70.2986	0.6987
87.7512	71.3681	0.7040
87.8073	73.7500	0.7156
87.8634	75.3750	0.7235
87.9195	77.6597	0.7344
87.9756	79.3889	0.7425
88.0317	79.3264	0.7422
88.0878	79.1736	0.7415
88.1439	78.9444	0.7404
88.2000	79.8542	0.7447
88.2561	79.0208	0.7408
88.3122	76.5903	0.7293
88.3683	74.2847	0.7182
88.4244	71.7431	0.7058
88.4805	70.5625	0.7000
88.5366	68.0278	0.6873
88.5927	65.2847	0.6733
88.6488	63.1944	0.6625
88.7049	60.4028	0.6477
88.7610	56.4306	0.6260
88.8171	54.5000	0.6152
88.8732	53.0069	0.6067
88.9293	49.1667	0.5843
88.9854	49.4444	0.5860
89.0415	47.6597	0.5753
89.0976	46.3472	0.5673
89.1537	45.4444	0.5618
89.2098	43.2778	0.5482
89.2659	42.9514	0.5461
89.3220	42.9514	0.5461
89.3781	39.3958	0.5231
89.4341	39.5208	0.5239
89.4902	39.8889	0.5263
89.5463	38.5069	0.5171
89.6024	38.5556	0.5174
89.6585	38.0694	0.5142
89.7146	36.3958	0.5027
89.7707	36.7569	0.5052
89.8268	36.1111	0.5008
89.8829	36.1042	0.5007
89.9390	35.6667	0.4977
89.9951	36.7222	0.5050
90.0512	35.8264	0.4988
90.1073	35.6111	0.4973
90.1634	36.0625	0.5004
90.2195	34.3681	0.4885
90.2756	34.6528	0.4906
90.3317	34.3889	0.4887
90.3878	35.1250	0.4939
90.4439	34.5486	0.4898
90.5000	34.2014	0.4873
90.5561	34.4583	0.4892
90.6122	35.0625	0.4934
90.6683	34.3889	0.4887
90.7244	34.2500	0.4877
90.7805	34.2569	0.4877
90.8366	34.8750	0.4921
90.8927	33.8958	0.4852
90.9488	34.3750	0.4886
91.0049	34.5625	0.4899
91.0610	34.6528	0.4906
91.1171	35.5417	0.4968
91.1732	34.1597	0.4871
91.2293	34.4028	0.4888
91.2854	34.5278	0.4897
91.3414	35.7708	0.4984
91.3975	35.0764	0.4935
91.4536	34.7153	0.4910
91.5097	35.3056	0.4952
91.5658	35.2639	0.4949
91.6219	35.9236	0.4995
91.6780	35.3611	0.4955
91.7341	36.0764	0.5005
91.7902	35.7917	0.4986
91.8463	36.6736	0.5047
91.9024	35.4653	0.4963
91.9585	36.1111	0.5008
92.0146	35.7431	0.4982
92.0707	35.0069	0.4931
92.1268	35.5833	0.4971
92.1829	34.9931	0.4930
92.2390	34.1528	0.4870
92.2951	34.6597	0.4906
92.3512	33.7431	0.4841
92.4073	33.7986	0.4845
92.4634	34.5278	0.4897
92.5195	34.1181	0.4868
92.5756	34.1250	0.4868
92.6317	35.0972	0.4937
92.6878	34.3472	0.4884
92.7439	33.6250	0.4832
92.8000	34.6111	0.4903
92.8561	34.2847	0.4879
92.9122	33.6458	0.4834
92.9683	33.9722	0.4857
93.0244	34.7222	0.4910
93.0805	33.8542	0.4849
93.1366	34.2222	0.4875
93.1927	34.4444	0.4891
93.2487	33.8194	0.4846
93.3048	33.9722	0.4857
93.3609	34.4792	0.4893
93.4170	34.0278	0.4861
93.4731	33.4931	0.4823
93.5292	33.5417	0.4826
93.5853	33.2847	0.4808
93.6414	33.4444	0.4819
93.6975	33.2708	0.4807
93.7536	34.2083	0.4874
93.8097	34.6181	0.4903
93.8658	33.3681	0.4814
93.9219	34.2778	0.4879
93.9780	33.4583	0.4820
94.0341	33.6319	0.4833
94.0902	33.8472	0.4848
94.1463	33.4306	0.4818
94.2024	33.5903	0.4830
94.2585	34.4444	0.4891
94.3146	33.0625	0.4792
94.3707	34.3750	0.4886
94.4268	33.4931	0.4823
94.4829	33.5972	0.4830
94.5390	33.1458	0.4798
94.5951	34.2014	0.4873
94.6512	34.2431	0.4876
94.7073	34.9028	0.4923
94.7634	34.0972	0.4866
94.8195	34.6181	0.4903
94.8756	35.1667	0.4942
94.9317	34.4931	0.4894
94.9878	34.4028	0.4888
95.0439	33.5625	0.4828
95.1000	33.7222	0.4839
95.1560	34.5278	0.4897
95.2121	34.1458	0.4870
95.2682	34.4306	0.4890
95.3243	34.9722	0.4928
95.3804	34.7778	0.4914
95.4365	34.2847	0.4879
95.4926	34.8403	0.4919
95.5487	35.4861	0.4964
95.6048	35.4097	0.4959
95.6609	34.8542	0.4920
95.7170	34.4097	0.4888
95.7731	33.9167	0.4853
95.8292	34.6597	0.4906
95.8853	34.8333	0.4918
95.9414	34.5139	0.4896
95.9975	34.6875	0.4908
96.0536	35.3333	0.4953
96.1097	35.4236	0.4960
96.1658	36.0208	0.5001
96.2219	35.1667	0.4942
96.2780	35.0764	0.4935
96.3341	35.2361	0.4947
96.3902	35.0347	0.4933
96.4463	35.3333	0.4953
96.5024	35.3194	0.4953
96.5585	34.4375	0.4890
96.6146	34.7917	0.4915
96.6707	36.0069	0.5000
96.7268	35.2083	0.4945
96.7829	34.8194	0.4917
96.8390	36.0069	0.5000
96.8951	35.3611	0.4955
96.9512	36.4931	0.5034
97.0073	35.8194	0.4987
97.0633	35.8472	0.4989
97.1194	36.3819	0.5026
97.1755	36.1944	0.5013
97.2316	35.8333	0.4988
97.2877	35.4236	0.4960
97.3438	37.2639	0.5087
97.3999	36.4931	0.5034
97.4560	36.7014	0.5048
97.5121	36.7083	0.5049
97.5682	35.9444	0.4996
97.6243	35.9306	0.4995
97.6804	36.2083	0.5014
97.7365	37.3125	0.5090
97.7926	36.7222	0.5050
97.8487	36.4931	0.5034
97.9048	36.9375	0.5065
97.9609	37.5069	0.5104
98.0170	36.9653	0.5067
98.0731	36.1458	0.5010
98.1292	38.6875	0.5183
98.1853	37.3403	0.5092
98.2414	37.6458	0.5113
98.2975	37.2153	0.5084
98.3536	37.1250	0.5078
98.4097	37.2778	0.5088
98.4658	37.5625	0.5107
98.5219	38.8472	0.5194
98.5780	38.6389	0.5180
98.6341	37.7500	0.5120
98.6902	37.8333	0.5126
98.7463	38.0972	0.5144
98.8024	38.6944	0.5184
98.8585	37.9167	0.5131
98.9146	38.8125	0.5192
98.9706	39.3472	0.5227
99.0267	39.2431	0.5220
99.0828	39.7083	0.5251
99.1389	39.3194	0.5225
99.1950	40.2014	0.5284
99.2511	40.5833	0.5309
99.3072	40.9028	0.5330
99.3633	40.6875	0.5316
99.4194	40.3472	0.5293
99.4755	42.1458	0.5410
99.5316	41.4514	0.5365
99.5877	41.4375	0.5364
99.6438	41.8333	0.5390
99.6999	42.3403	0.5422
99.7560	42.8611	0.5456
99.8121	44.0903	0.5533
99.8682	44.2500	0.5543
99.9243	45.1389	0.5599
99.9804	46.2569	0.5668